,answer,internal_chunk_id,key_press,level,rt,stimulus,time_elapsed,trial_index,trial_index_global,trial_type,uniqueid,word
0,1,0-0,49,Practice,7107,/static/images/Practice/06_Turkey Vulture/B_Hawks - Turkey Vulture - 013 - s083 - crop - col.jpg,187107,0,4,single-stim,A10GEOLHPUXK0T:3F6KKYWMNCYIHFFWIQH9ZP9W22ZDN8,"1. Turkey Vulture
2. Ferruginous Hawk
3. Parasitic Jaeger
4. Northern Harrier"
1,3,0-0,52,Practice,3182,/static/images/Practice/08_Osprey/B_Hawks - Osprey - 005 - s000 - crop - col.jpg,190634,1,5,single-stim,A10GEOLHPUXK0T:3F6KKYWMNCYIHFFWIQH9ZP9W22ZDN8,"1. Crested Caracara
2. Golden Eagle
3. Osprey
4. Ruffed Grouse"
2,4,0-0,49,Practice,4291,/static/images/Practice/04_Canada Goose/B_Ducks - Canada Goose - 004 - s000 - crop - col.jpg,195322,2,6,single-stim,A10GEOLHPUXK0T:3F6KKYWMNCYIHFFWIQH9ZP9W22ZDN8,"1. Common Loon
2. Brant
3. Sanderling
4. Canada Goose"
3,4,0-0,52,Practice,2811,/static/images/Practice/03_Bald Eagle/B_Hawks - Bald Eagle - 012 - s074 - m - a - crop - col.jpg,198537,3,7,single-stim,A10GEOLHPUXK0T:3F6KKYWMNCYIHFFWIQH9ZP9W22ZDN8,"1. Broad-winged Hawk
2. Golden Eagle
3. Great Egret
4. Bald Eagle"
4,1,0-0,49,Practice,2409,/static/images/Practice/02_Greater Roadrunner/B_Cuckoos - Greater Roadrunner - 002 - s010 - crop - col.jpg,201170,4,8,single-stim,A10GEOLHPUXK0T:3F6KKYWMNCYIHFFWIQH9ZP9W22ZDN8,"1. Greater Roadrunner
2. Northern Bobwhite
3. Black-billed Cuckoo
4. Ruddy Turnstone"
5,1,0-0,50,Practice,4376,/static/images/Practice/09_Killdeer/B_Shorebirds - Killdeer - 012 - s086 - crop - col.jpg,206074,5,9,single-stim,A10GEOLHPUXK0T:3F6KKYWMNCYIHFFWIQH9ZP9W22ZDN8,"1. Killdeer
2. Herring Gull
3. Willet
4. Piping Plover"
6,1,0-0,49,Practice,4533,/static/images/Practice/01_Barn Owl/B_Barn-owls - Common Barn-Owl - 094 - s000 - crop - col.jpg,211025,6,10,single-stim,A10GEOLHPUXK0T:3F6KKYWMNCYIHFFWIQH9ZP9W22ZDN8,"1. Barn Owl
2. Common Poorwill
3. Barred Owl
4. American Bittern"
7,3,0-0,51,Practice,3018,/static/images/Practice/10_Great Blue Heron/B_Herons - Great Blue Heron - 013 - s085 - crop - col.jpg,214513,7,11,single-stim,A10GEOLHPUXK0T:3F6KKYWMNCYIHFFWIQH9ZP9W22ZDN8,"1. American Avocet
2. Anhinga
3. Great Blue Heron
4. Cattle Egret"
8,1,0-0,50,Practice,3919,/static/images/Practice/05_Wood Duck/B_Ducks - Wood Duck - 004 - s000 - crop - col.jpg,218545,8,12,single-stim,A10GEOLHPUXK0T:3F6KKYWMNCYIHFFWIQH9ZP9W22ZDN8,"1. Wood Duck
2. Harlequin Duck
3. Bridled Tern
4. Pied-billed Grebe"
9,2,0-0,52,Intermediate,4162,/static/images/Intermediate/04_Western Tanager/B_Cardinals and Grosbeaks - Western Tanager - 001 - s000 - crop - col.jpg,223233,9,13,single-stim,A10GEOLHPUXK0T:3F6KKYWMNCYIHFFWIQH9ZP9W22ZDN8,"1. Varied Bunting
2. Western Tanager
3. Hepatic Tanager
4. Painted Bunting"
10,3,0-0,51,Novice,3123,/static/images/Novice/02_Northern Cardinal/B_Cardinals and Grosbeaks - Northern Cardinal - 002 - s000 - crop - col.jpg,226649,10,14,single-stim,A10GEOLHPUXK0T:3F6KKYWMNCYIHFFWIQH9ZP9W22ZDN8,"1. Painted Bunting
2. Scarlet Tanager
3. Northern Cardinal
4. Mountain Chickadee"
11,2,0-0,50,Novice,2281,/static/images/Novice/06_American Robin/B_Thrushes - American Robin - 002 - s000 - crop - col.jpg,229217,11,15,single-stim,A10GEOLHPUXK0T:3F6KKYWMNCYIHFFWIQH9ZP9W22ZDN8,"1. Swainson's Thrush
2. American Robin
3. Lazuli Bunting
4. Song Sparrow"
12,3,0-0,51,Beginner,3710,/static/images/Beginner/08_American Tree Sparrow/B_New World Sparrows - American Tree Sparrow - 002 - s000 - crop - col.jpg,233368,12,16,single-stim,A10GEOLHPUXK0T:3F6KKYWMNCYIHFFWIQH9ZP9W22ZDN8,"1. Spotted Towhee
2. Western Meadowlark
3. American Tree Sparrow
4. Western Scrub-Jay"
13,4,0-0,50,Novice,4404,/static/images/Novice/03_European Starling/B_Starlings - European Starling - 009 - s000 - crop - col.jpg,238296,13,17,single-stim,A10GEOLHPUXK0T:3F6KKYWMNCYIHFFWIQH9ZP9W22ZDN8,"1. Pine Grosbeak
2. Lark Bunting
3. Common Raven
4. European Starling"
14,2,0-0,50,Novice,4573,/static/images/Novice/07_American Goldfinch/B_Finches - American Goldfinch  - 002 - s000 - crop - col.jpg,243328,14,18,single-stim,A10GEOLHPUXK0T:3F6KKYWMNCYIHFFWIQH9ZP9W22ZDN8,"1. House Finch
2. American Goldfinch
3. Yellow Grosbeak
4. Summer Tanager"
15,2,0-0,50,Novice,2806,"/static/images/Novice/09_Blue Jay/B_Jays, Magpies, and Crows - Blue Jay - 004 - s000 - crop - col.jpg",246640,15,19,single-stim,A10GEOLHPUXK0T:3F6KKYWMNCYIHFFWIQH9ZP9W22ZDN8,"1. Carolina Wren
2. Blue Jay
3. Clark's Nutcracker
4. Mountain Bluebird"
16,2,0-0,51,Novice,3351,/static/images/Novice/01_Northern Mockingbird/B_Mockingbirds and Thrashers - Northern Mockingbird - 009 - s000 - crop - col.jpg,250120,16,20,single-stim,A10GEOLHPUXK0T:3F6KKYWMNCYIHFFWIQH9ZP9W22ZDN8,"1. Barn Swallow
2. Northern Mockingbird
3. Brown Thrasher
4. Gray Catbird"
17,2,0-0,49,Novice,4025,/static/images/Novice/10_Rock Pigeon/B_Pigeons and Doves - Rock Pigeon (Rock dove) - 012 - crop - col.jpg,254703,17,21,single-stim,A10GEOLHPUXK0T:3F6KKYWMNCYIHFFWIQH9ZP9W22ZDN8,"1. Mourning Dove
2. Rock Pigeon
3. Cape May Warbler
4. Least Flycatcher"
18,4,0-0,52,Intermediate,5201,"/static/images/Intermediate/11_Black-billed Magpie/B_Jays, Magpies, and Crows - Black-billed Magpie - 012 - s010 - crop - col.jpg",260104,18,22,single-stim,A10GEOLHPUXK0T:3F6KKYWMNCYIHFFWIQH9ZP9W22ZDN8,"1. Lark Bunting
2. Brewer's Blackbird
3. American Crow
4. Black-billed Magpie"
19,1,0-0,52,Beginner,3393,"/static/images/Beginner/04_Steller's Jay/B_Jays, Magpies, and Crows - Steller's Jay - 002 - s000 - crop - col.jpg",263768,19,23,single-stim,A10GEOLHPUXK0T:3F6KKYWMNCYIHFFWIQH9ZP9W22ZDN8,"1. Steller's Jay
2. Hermit Warbler
3. Blue Jay
4. Blue Grosbeak"
20,3,0-0,51,Intermediate,3603,/static/images/Intermediate/01_Wood Thrush/B_Thrushes - Wood Thrush - 004 - s000 - crop - col.jpg,267887,20,24,single-stim,A10GEOLHPUXK0T:3F6KKYWMNCYIHFFWIQH9ZP9W22ZDN8,"1. Spragues's Pipit
2. Varied Thrush
3. Wood Thrush
4. American Pipit"
21,3,0-0,51,Intermediate,3311,/static/images/Intermediate/03_Painted Bunting/B_Cardinals and Grosbeaks - Painted Bunting - 006 - s000 - crop - col.jpg,271751,21,25,single-stim,A10GEOLHPUXK0T:3F6KKYWMNCYIHFFWIQH9ZP9W22ZDN8,"1. Rose-breasted Grosbeak
2. Hooded Oriole
3. Painted Bunting
4. Lazuli Bunting"
22,3,0-0,49,Beginner,1694,"/static/images/Beginner/10_Western Scrub Jay/B_Jays, Magpies, and Crows - Western Scrub-Jay - 006 - s001 - crop - col.jpg",273759,22,26,single-stim,A10GEOLHPUXK0T:3F6KKYWMNCYIHFFWIQH9ZP9W22ZDN8,"1. Indigo Bunting
2. Great Kiskadee
3. Western Scrub Jay
4. Steller's Jay"
23,4,0-0,50,Beginner,3936,/static/images/Beginner/01_House Finch/B_Finches - House Finch - 006 - s000 - crop - col.jpg,278095,23,27,single-stim,A10GEOLHPUXK0T:3F6KKYWMNCYIHFFWIQH9ZP9W22ZDN8,"1. Common Redpoll
2. Flame-colored Tanager
3. Crissal Thrasher
4. House Finch"
24,2,0-0,50,Novice,4056,/static/images/Novice/04_Baltimore Oriole/B_Blackbirds - Baltimore Oriole - 004 - s001 - crop - col.jpg,282630,24,28,single-stim,A10GEOLHPUXK0T:3F6KKYWMNCYIHFFWIQH9ZP9W22ZDN8,"1. Eastern Meadowlark
2. Baltimore Oriole
3. Blackburnian Warbler
4. Black-capped Chickadee"
25,3,0-0,51,Beginner,5522,/static/images/Beginner/06_Brown-headed Cowbird/B_Blackbirds - Brown-Headed Cowbird - 008 - s000 - crop - col.jpg,288718,25,29,single-stim,A10GEOLHPUXK0T:3F6KKYWMNCYIHFFWIQH9ZP9W22ZDN8,"1. Cape May Warbler
2. Song Sparrow
3. Brown-headed Cowbird
4. Baltimore Oriole"
26,3,0-0,50,Intermediate,2355,/static/images/Intermediate/05_Cactus Wren/B_Wrens - Cactus Wren - 004 - s005 - crop - col.jpg,291479,26,30,single-stim,A10GEOLHPUXK0T:3F6KKYWMNCYIHFFWIQH9ZP9W22ZDN8,"1. Abert's Towhee
2. Carolina Wren
3. Cactus Wren
4. Fox Sparrow"
27,1,0-0,51,Intermediate,4338,"/static/images/Intermediate/07_Clark's Nutcracker/B_Jays, Magpies, and Crows - Clark's Nutcracker - 001 - s001 - crop - col.jpg",296062,27,31,single-stim,A10GEOLHPUXK0T:3F6KKYWMNCYIHFFWIQH9ZP9W22ZDN8,"1. Clark's Nutcracker
2. Scott's Oriole
3. Bridled Titmouse
4. Pinyon Jay"
28,1,0-0,49,Advanced,2887,/static/images/Advanced/06_Bay-breasted Warbler/B_Wood-warblers - Bay-breasted Warbler - 004 - s000 - crop - col.jpg,299446,28,32,single-stim,A10GEOLHPUXK0T:3F6KKYWMNCYIHFFWIQH9ZP9W22ZDN8,"1. Bay-breasted Warbler
2. Pine Warbler
3. Blackburnian Warbler
4. Cape May Warbler"
29,3,0-0,50,Advanced,4514,/static/images/Advanced/15_Summer Tanager/B_Cardinals - Summer Tanager - 002 - s001 - crop - col.jpg,304542,29,33,single-stim,A10GEOLHPUXK0T:3F6KKYWMNCYIHFFWIQH9ZP9W22ZDN8,"1. Flame-colored Tanager
2. Scarlet Tanager
3. Summer Tanager
4. Hepatic Tanager"
30,4,0-0,49,Advanced,4183,/static/images/Advanced/01_Blackburnian Warbler/B_Wood-warblers - Blackburnian Warbler - 001 - s000 - crop - col.jpg,309310,30,34,single-stim,A10GEOLHPUXK0T:3F6KKYWMNCYIHFFWIQH9ZP9W22ZDN8,"1. Magnolia Warbler
2. Palm Warbler
3. Bay-breasted Warbler
4. Blackburnian Warbler"
31,4,0-0,50,Beginner,4301,/static/images/Beginner/03_Northern Flicker/B_Woodpeckers - Northern Flicker - 002 - s000 - crop - col.jpg,313886,31,35,single-stim,A10GEOLHPUXK0T:3F6KKYWMNCYIHFFWIQH9ZP9W22ZDN8,"1. Brown Thrasher
2. Yellow-bellied Sapsucker
3. House Sparrow
4. Northern Flicker"
32,2,0-0,50,Advanced,3795,/static/images/Advanced/12_Yellow-breasted Chat/B_Wood-warblers - Yellow-breasted Chat - 006 - s000 - crop - col.jpg,317798,32,36,single-stim,A10GEOLHPUXK0T:3F6KKYWMNCYIHFFWIQH9ZP9W22ZDN8,"1. Mourning Warbler
2. Yellow-breasted Chat
3. Wilson's Warbler
4. Common Yellowthroat"
33,2,0-0,52,Beginner,4723,/static/images/Beginner/07_Bushtit/B_Bushtits - Bushtit - 006 - s000 - crop - col.jpg,322725,33,37,single-stim,A10GEOLHPUXK0T:3F6KKYWMNCYIHFFWIQH9ZP9W22ZDN8,"1. Verdin
2. Bushtit
3. Painted Bunting
4. Swamp Sparrow"
34,1,0-0,51,Intermediate,3466,/static/images/Intermediate/02_American Redstart/B_Wood-Warblers - American Redstart - 004 - s001 - crop - col.jpg,326709,34,38,single-stim,A10GEOLHPUXK0T:3F6KKYWMNCYIHFFWIQH9ZP9W22ZDN8,"1. American Redstart
2. Ovenbird
3. Altamira Oriole
4. Cape May Warbler"
35,2,0-0,51,Advanced,5030,/static/images/Advanced/16_Bridled Titmouse/B_Chickadees and Titmice - Bridled Titmouse - 003 - s000 - crop - col.jpg,331989,35,39,single-stim,A10GEOLHPUXK0T:3F6KKYWMNCYIHFFWIQH9ZP9W22ZDN8,"1. Tufted Titmouse
2. Bridled Titmouse
3. Black-crested Titmouse
4. Mountain Chickadee"
36,2,0-0,52,Advanced,4823,/static/images/Advanced/09_Scott's Oriole/B_Blackbirds - Scott's Oriole - 002 - s000 - crop - col.jpg,337085,36,40,single-stim,A10GEOLHPUXK0T:3F6KKYWMNCYIHFFWIQH9ZP9W22ZDN8,"1. Bullock's Oriole
2. Scott's Oriole
3. Audubon's Oriole
4. Orchard Oriole"
37,2,0-0,50,Intermediate,2710,/static/images/Intermediate/10_Pileated Woodpecker/B_Woodpeckers - Pileated Woodpecker - 006 - s009 - f - a - spring - crop - col.jpg,340309,37,41,single-stim,A10GEOLHPUXK0T:3F6KKYWMNCYIHFFWIQH9ZP9W22ZDN8,"1. Black-billed Magpie
2. Pileated Woodpecker
3. Downy Woodpecker
4. Townsend's Solitaire"
38,2,0-0,50,Intermediate,6376,/static/images/Intermediate/08_Cerulean Warbler/B_Wood-Warblers - Cerulean Warbler - 006 - s000 - crop - col.jpg,346788,38,42,single-stim,A10GEOLHPUXK0T:3F6KKYWMNCYIHFFWIQH9ZP9W22ZDN8,"1. Collared Whitestart
2. Cerulean Warbler
3. Tropical Parula
4. Black throated Blue Warbler"
39,1,0-0,51,Beginner,2830,/static/images/Beginner/09_Red-winged Blackbird/B_Blackbird - Red-Winged Blackbird - 008 - s002 - m - a - spring - crop - col.jpg,349908,39,43,single-stim,A10GEOLHPUXK0T:3F6KKYWMNCYIHFFWIQH9ZP9W22ZDN8,"1. Red-winged Blackbird
2. Scott's Oriole
3. American Redstart
4. Common Grackle"
40,3,0-0,51,Novice,2939,/static/images/Novice/05_Mourning Dove/B_Pigeons and Doves - Mourning Dove - 006 - s000 - crop - col.jpg,353196,40,44,single-stim,A10GEOLHPUXK0T:3F6KKYWMNCYIHFFWIQH9ZP9W22ZDN8,"1. Lark Sparrow
2. Rock Pigeon
3. Mourning Dove
4. Loggerhead Shrike"
41,4,0-0,51,Advanced,5176,/static/images/Advanced/05_Bullock's Oriole/B_Blackbirds - Bullock's Oriole - 007 - s000 - crop - col.jpg,358501,41,45,single-stim,A10GEOLHPUXK0T:3F6KKYWMNCYIHFFWIQH9ZP9W22ZDN8,"1. Altamira Oriole
2. Audubon's Oriole
3. Baltimore Oriole
4. Bullock's Oriole"
42,3,0-0,50,Beginner,3695,/static/images/Beginner/05_Red-bellied Woodpecker/B_Woodpeckers - Red-Bellied Woodpecker - 006 - s000 - crop - col.jpg,362636,42,46,single-stim,A10GEOLHPUXK0T:3F6KKYWMNCYIHFFWIQH9ZP9W22ZDN8,"1. Northern Mockingbird
2. Pileated Woodpecker
3. Red-bellied Woodpecker
4. Vermillion Flycatcher"
43,3,0-0,51,Expert,2216,/static/images/Expert/07_Veery/B_Thrushes - Veery - 004 - s001 - crop - col.jpg,365076,43,47,single-stim,A10GEOLHPUXK0T:3F6KKYWMNCYIHFFWIQH9ZP9W22ZDN8,"1. Wood Thrush
2. Hermit Thrush
3. Veery
4. Swainson's Thrush"
44,3,0-0,50,Expert,2088,/static/images/Expert/112_American Dipper/American Dipper2.jpg,367596,44,48,single-stim,A10GEOLHPUXK0T:3F6KKYWMNCYIHFFWIQH9ZP9W22ZDN8,"1. Black Phoebe
2. Gray Jay
3. American Dipper
4. Gray Catbird"
45,1,0-0,49,Expert,5644,/static/images/Expert/107_Black-and-white Warbler/Black-and-white Warbler2.jpg,373652,45,49,single-stim,A10GEOLHPUXK0T:3F6KKYWMNCYIHFFWIQH9ZP9W22ZDN8,"1. Black-and-white Warbler
2. Brown-headed Nuthatch
3. Red-breasted Nuthatch
4. White-breasted Nuthatch"
46,4,0-0,49,Advanced,2171,/static/images/Advanced/07_Acorn Woodpecker/B_Woodpeckers - Acorn Woodpecker - 005 - s004 - m - crop - col.jpg,376380,46,50,single-stim,A10GEOLHPUXK0T:3F6KKYWMNCYIHFFWIQH9ZP9W22ZDN8,"1. Red-headed Woodpecker
2. Yellow-bellied Sapsucker
3. Gila Woodpecker
4. Acorn Woodpecker"
47,2,0-0,52,Expert,3801,/static/images/Expert/08_Chipping Sparrow/B_New World Sparrows - Chipping Sparrow - 005 - s000 - crop - col.jpg,380315,47,51,single-stim,A10GEOLHPUXK0T:3F6KKYWMNCYIHFFWIQH9ZP9W22ZDN8,"1. American Tree Sparrow
2. Chipping Sparrow
3. Clay-colored Sparrow
4. Field Sparrow"
48,4,0-0,49,Expert,2985,/static/images/Expert/04_Nashville Warbler/B_Wood-warblers - Nashville Warbler - 004 - s001 - crop - col.jpg,383603,48,52,single-stim,A10GEOLHPUXK0T:3F6KKYWMNCYIHFFWIQH9ZP9W22ZDN8,"1. Orange-crowned Warbler
2. Palm Warbler
3. Tennessee Warbler
4. Nashville Warbler"
49,3,0-0,49,Intermediate,2479,/static/images/Intermediate/12_Belted Kingfisher/B_Kingfisher - Belted Kingfisher - 012 - s010 - crop - col.jpg,386203,49,53,single-stim,A10GEOLHPUXK0T:3F6KKYWMNCYIHFFWIQH9ZP9W22ZDN8,"1. Great Crested Flycatcher
2. Phainopepla
3. Belted Kingfisher
4. Bridled Titmouse"
50,3,0-0,49,Intermediate,1555,/static/images/Intermediate/09_Great Kiskadee/B_Flycatchers - Kiskadee Flycatcher (Greater Kiskadee) - 009 - s009 - crop - col.jpg,388212,50,54,single-stim,A10GEOLHPUXK0T:3F6KKYWMNCYIHFFWIQH9ZP9W22ZDN8,"1. Yellow-throated Vireo
2. Brewer's Sparrow
3. Great Kiskadee
4. Say's Phoebe"
51,4,0-0,51,Expert,3733,/static/images/Expert/118_Spotted Towhee/Spotted Towhee2.jpg,392059,51,55,single-stim,A10GEOLHPUXK0T:3F6KKYWMNCYIHFFWIQH9ZP9W22ZDN8,"1. American Redstart
2. Eastern Towhee
3. Baltimore Oriole
4. Spotted Towhee"
52,2,0-0,49,Intermediate,3247,/static/images/Intermediate/14_Vermilion Flycatcher/B_Tyrant Flycatcher - Vermilion Flycatcher - 001 - s000 - crop - col.jpg,395507,52,56,single-stim,A10GEOLHPUXK0T:3F6KKYWMNCYIHFFWIQH9ZP9W22ZDN8,"1. Scarlet Tanager
2. Vermilion Flycatcher
3. Say's Phoebe
4. Great Kiskadee"
53,2,0-0,49,Intermediate,1231,/static/images/Intermediate/15_Blue Grosbeak/B_Cardinals and Grosbeaks - Blue Grosbeak - 002 - s001 - crop - col.jpg,396899,53,57,single-stim,A10GEOLHPUXK0T:3F6KKYWMNCYIHFFWIQH9ZP9W22ZDN8,"1. Blue Jay
2. Blue Grosbeak
3. Cerulean Warbler
4. Indigo Bunting"
54,1,0-0,50,Advanced,4727,/static/images/Advanced/08_Indigo Bunting/B_Cardinals and Grosbeaks - Indigo Bunting - 004 - s000 - crop - col.jpg,402035,54,58,single-stim,A10GEOLHPUXK0T:3F6KKYWMNCYIHFFWIQH9ZP9W22ZDN8,"1. Indigo Bunting
2. Lazuli Bunting
3. Blue Grosbeak
4. Eastern Bluebird"
55,3,0-0,50,Expert,6346,/static/images/Expert/108_Mountain Bluebird/Mountain Bluebird2.jpg,408658,55,59,single-stim,A10GEOLHPUXK0T:3F6KKYWMNCYIHFFWIQH9ZP9W22ZDN8,"1. Eastern Bluebird
2. Western Bluebird
3. Mountain Bluebird
4. Blue Grosbeak"
56,4,0-0,50,Advanced,2186,/static/images/Advanced/19_Brown Creeper/B_Creepers - Brown Creeper - 004 - s000 - crop - col.jpg,411154,56,60,single-stim,A10GEOLHPUXK0T:3F6KKYWMNCYIHFFWIQH9ZP9W22ZDN8,"1. Canyon Wren
2. Bewick's Wren
3. Cactus Wren
4. Brown Creeper"
57,1,0-0,51,Expert,4193,/static/images/Expert/101_Common Redpoll/Common Redpoll2.jpg,415554,57,61,single-stim,A10GEOLHPUXK0T:3F6KKYWMNCYIHFFWIQH9ZP9W22ZDN8,"1. Common Redpoll
2. Hoary Redpoll
3. Cassin's Finch
4. Pine Siskin"
58,4,0-0,49,Expert,1984,/static/images/Expert/05_Fox Sparrow/B_New World Sparrows - Fox Sparrow - 005 - s009 - crop - col.jpg,417794,58,62,single-stim,A10GEOLHPUXK0T:3F6KKYWMNCYIHFFWIQH9ZP9W22ZDN8,"1. Henslow's Sparrow
2. Song Sparrow
3. Sage Sparrow
4. Fox Sparrow"
59,2,0-0,50,Advanced,2248,/static/images/Advanced/18_Bobolink/B_Blackbirds - Bobolink - 002 - s000 - crop - col.jpg,420378,59,63,single-stim,A10GEOLHPUXK0T:3F6KKYWMNCYIHFFWIQH9ZP9W22ZDN8,"1. Eastern Meadowlark
2. Bobolink
3. Yellow-headed Blackbird
4. Lark Bunting"
60,1,0-0,50,Expert,2497,/static/images/Expert/18_Eastern Towhee/B_New World Sparrows - Eastern Towhee - 001 - s002 - m - a - fall - crop - col.jpg,423402,60,64,single-stim,A10GEOLHPUXK0T:3F6KKYWMNCYIHFFWIQH9ZP9W22ZDN8,"1. Eastern Towhee
2. Lark Sparrow
3. Spotted Towhee
4. Black-headed Grosbeak"
61,3,0-0,50,Expert,3111,/static/images/Expert/11_Blue-headed Vireo/B_Vireos - Blue-headed Vireo - 001 - s001 - crop - col.jpg,426881,61,65,single-stim,A10GEOLHPUXK0T:3F6KKYWMNCYIHFFWIQH9ZP9W22ZDN8,"1. Hutton's Vireo
2. Warbling Vireo
3. Blue-headed Vireo
4. Cassin's Vireo"
62,3,0-0,50,Expert,3095,/static/images/Expert/120_Hermit Warbler/Hermit Warbler2.jpg,430369,62,66,single-stim,A10GEOLHPUXK0T:3F6KKYWMNCYIHFFWIQH9ZP9W22ZDN8,"1. Townsend's Warbler
2. Golden-cheeked Warbler
3. Hermit Warbler
4. Black-throated Green Warbler"
63,3,0-0,51,Expert,4464,/static/images/Expert/109_White-breasted Nuthatch/White-breasted Nuthatch2.jpg,435273,63,67,single-stim,A10GEOLHPUXK0T:3F6KKYWMNCYIHFFWIQH9ZP9W22ZDN8,"1. Pygmy Nuthatch
2. Tufted Titmouse
3. White-breasted Nuthatch
4. Carolina Chickadee"
64,1,0-0,49,Expert,7131,/static/images/Expert/13_Golden-fronted Woodpecker/B_Woodpecker - Golden-fronted Woodpecker - 004 - s000 - crop - col.jpg,442833,64,68,single-stim,A10GEOLHPUXK0T:3F6KKYWMNCYIHFFWIQH9ZP9W22ZDN8,"1. Golden-fronted Woodpecker
2. Red-bellied Woodpecker
3. Gila Woodpecker
4. Red-headed Woodpecker"
65,4,0-0,51,Expert,2418,/static/images/Expert/10_Warbling Vireo/B_Vieros - Warbling Vireo - 004 - s001 - crop - col.jpg,445617,65,69,single-stim,A10GEOLHPUXK0T:3F6KKYWMNCYIHFFWIQH9ZP9W22ZDN8,"1. Bell's Vireo
2. Philadelphia Vireo
3. Hutton's Vireo
4. Warbling Vireo"
66,3,0-0,49,Expert,3890,/static/images/Expert/01_Townsend's Warbler/B_Wood-warblers - Townsends's Warbler - 002 - s000 - crop - col.jpg,449736,66,70,single-stim,A10GEOLHPUXK0T:3F6KKYWMNCYIHFFWIQH9ZP9W22ZDN8,"1. Magnolia Warbler
2. Blackburnian Warbler
3. Townsend's Warbler
4. Black-throated Green Warbler"
67,2,0-0,52,Expert,4884,/static/images/Expert/17_Yellow-bellied Sapsucker/B_Woodpeckers - Yellow-bellied Sapsucker - 003 - s000 - crop - col.jpg,454904,67,71,single-stim,A10GEOLHPUXK0T:3F6KKYWMNCYIHFFWIQH9ZP9W22ZDN8,"1. Golden-fronted Woodpecker
2. Yellow-bellied Sapsucker
3. Ladder-backed Woodpecker
4. Red-Naped Sapsucker"
68,3,0-0,49,Expert,3718,/static/images/Expert/110_Pygmy Nuthatch/Pygmy Nuthatch2.jpg,459048,68,72,single-stim,A10GEOLHPUXK0T:3F6KKYWMNCYIHFFWIQH9ZP9W22ZDN8,"1. Bushtit
2. Brown-headed Nuthatch
3. Pygmy Nuthatch
4. White-breasted Nuthatch"
69,1,0-0,50,Expert,3753,/static/images/Expert/116_Hermit Thrush/Hermit Thrush2.jpg,463008,69,73,single-stim,A10GEOLHPUXK0T:3F6KKYWMNCYIHFFWIQH9ZP9W22ZDN8,"1. Hermit Thrush
2. Wood Thrush
3. Veery
4. Swainson's Thrush"
70,1,0-0,52,Advanced,2797,/static/images/Advanced/02_Prothonotary Warbler/B_Wood-warblers - Prothonotary Warbler - 002 - s000 - crop - col.jpg,466208,70,74,single-stim,A10GEOLHPUXK0T:3F6KKYWMNCYIHFFWIQH9ZP9W22ZDN8,"1. Prothonotary Warbler
2. Wilson's Warbler
3. Prairie Warbler
4. Yellow Warbler"
71,1,0-0,51,Expert,4587,/static/images/Expert/14_Wilson's Warbler/B_Wood-warblers - Wilson's Warbler - 002 - s001 - crop - col.jpg,471360,71,75,single-stim,A10GEOLHPUXK0T:3F6KKYWMNCYIHFFWIQH9ZP9W22ZDN8,"1. Wilson's Warbler
2. Yellow Warbler
3. Common Yellowthroat
4. Hooded Warbler"
72,4,0-0,49,Expert,3111,/static/images/Expert/115_Vesper Sparrow/Vesper Sparrow2.jpg,475048,72,76,single-stim,A10GEOLHPUXK0T:3F6KKYWMNCYIHFFWIQH9ZP9W22ZDN8,"1. Swamp Sparrow
2. Lincoln's Sparrow
3. Song Sparrow
4. Vesper Sparrow"
73,1,0-0,51,Advanced,5312,/static/images/Advanced/11_Say's Phoebe/B_Tyrant Flycatchers - Say's Phoebe - 004 - s000 - crop - col.jpg,480791,73,77,single-stim,A10GEOLHPUXK0T:3F6KKYWMNCYIHFFWIQH9ZP9W22ZDN8,"1. Say's Phoebe
2. Black Phoebe
3. Olive-sided Flycatcher
4. Eastern Phoebe"
74,4,0-0,50,Intermediate,2968,/static/images/Intermediate/06_Phainopepla/B_Silky-Flycatchers - Phainopepla - 003 - s000 - m - a -crop - col.jpg,484128,74,78,single-stim,A10GEOLHPUXK0T:3F6KKYWMNCYIHFFWIQH9ZP9W22ZDN8,"1. Northern Cardinal
2. Cedar Waxwing
3. Pyrrhuloxia
4. Phainopepla"
75,1,0-0,49,Expert,2120,/static/images/Expert/06_White-crowned Sparrow/B_Sparrows - White-crowned Sparrow - 003 - s000 - crop - col.jpg,486567,75,79,single-stim,A10GEOLHPUXK0T:3F6KKYWMNCYIHFFWIQH9ZP9W22ZDN8,"1. White-crowned Sparrow
2. Swamp Sparrow
3. White-throated Sparrow
4. Song Sparrow"
76,4,0-0,50,Advanced,3689,"/static/images/Advanced/13_Common Raven/B_Jays, Magpies, and Crows - Common Raven - 006 - s000 - m - a -crop - col.jpg",490639,76,80,single-stim,A10GEOLHPUXK0T:3F6KKYWMNCYIHFFWIQH9ZP9W22ZDN8,"1. Fish Crow
2. American Crow
3. Gray Jay
4. Common Raven"
77,4,0-0,52,Expert,3274,/static/images/Expert/09_Purple Martin/B_Swallows - Purple Martin - 006 - s001 - crop - col.jpg,494095,77,81,single-stim,A10GEOLHPUXK0T:3F6KKYWMNCYIHFFWIQH9ZP9W22ZDN8,"1. Barn Swallow
2. Common Grackle
3. Tree Swallow
4. Purple Martin"
78,3,0-0,51,Intermediate,5492,/static/images/Intermediate/13_Pyrrhuloxia/B_Cardinals and Grosbeaks - Pyrrhuloxia - 012 - s010 - m - crop - col.jpg,499911,78,82,single-stim,A10GEOLHPUXK0T:3F6KKYWMNCYIHFFWIQH9ZP9W22ZDN8,"1. Scarlet Tanager
2. Northern Cardinal
3. Pyrrhuloxia
4. Bobolink"
79,1,0-0,52,Expert,3523,/static/images/Expert/20_Northern Rough-winged Swallow/B_Swallows - Northern Rough-winged Swallow - 003 - s001 - crop - col.jpg,503719,79,83,single-stim,A10GEOLHPUXK0T:3F6KKYWMNCYIHFFWIQH9ZP9W22ZDN8,"1. Northern Rough-winged Swallow
2. Barn Swallow
3. Tree Swallow
4. Bank Swallow"
80,2,0-0,50,Expert,5787,/static/images/Expert/104_Evening Grosbeak/Evening Grosbeak2.jpg,510023,80,84,single-stim,A10GEOLHPUXK0T:3F6KKYWMNCYIHFFWIQH9ZP9W22ZDN8,"1. American Goldfinch
2. Evening Grosbeak
3. Purple Finch
4. Pine Grosbeak"
81,4,0-0,49,Expert,2244,/static/images/Expert/111_Brown-headed Nuthatch/Brown-headed Nuthatch2.jpg,512382,81,85,single-stim,A10GEOLHPUXK0T:3F6KKYWMNCYIHFFWIQH9ZP9W22ZDN8,"1. Brown Creeper
2. Pygmy Nuthatch
3. Red-breasted Nuthatch
4. Brown-headed Nuthatch"
82,4,0-0,50,Expert,4839,/static/images/Expert/113_White-winged Dove/White-winged Dove2.jpg,517807,82,86,single-stim,A10GEOLHPUXK0T:3F6KKYWMNCYIHFFWIQH9ZP9W22ZDN8,"1. White-tipped Dove
2. Inca Dove
3. Common Ground Dove
4. White-winged Dove"
83,2,0-0,49,Expert,3335,/static/images/Expert/106_Townsend's Solitaire/Townsend's Solitaire2.jpg,521294,83,87,single-stim,A10GEOLHPUXK0T:3F6KKYWMNCYIHFFWIQH9ZP9W22ZDN8,"1. Gray-cheeked Thrush
2. Townsend's Solitaire
3. Northern Shrike
4. Mountain bluebird"
84,2,0-0,51,Beginner,2804,/static/images/Beginner/02_Carolina Wren/B_Wrens - Carolina Wren - 005 - s000 - crop - col.jpg,524246,84,88,single-stim,A10GEOLHPUXK0T:3F6KKYWMNCYIHFFWIQH9ZP9W22ZDN8,"1. Ovenbird
2. Carolina Wren
3. Cactus Wren
4. Tufted Titmouse"
85,2,0-0,49,Expert,3456,/static/images/Expert/03_Ovenbird/B_Wood-warblers - Ovenbird - 013 - s010 - crop - col.jpg,528270,85,89,single-stim,A10GEOLHPUXK0T:3F6KKYWMNCYIHFFWIQH9ZP9W22ZDN8,"1. Lark Sparrow
2. Ovenbird
3. Louisiana Waterthrush
4. Northern Waterthrush"
86,3,0-0,50,Expert,3025,/static/images/Expert/102_Verdin/Verdin2.jpg,531654,86,90,single-stim,A10GEOLHPUXK0T:3F6KKYWMNCYIHFFWIQH9ZP9W22ZDN8,"1. Bushtit
2. Lucy's Warbler
3. Verdin
4. Blue-gray Gnatcatchers"
87,4,0-0,49,Expert,2275,/static/images/Expert/119_Louisiana Waterthrush/Louisiana Waterthrush2.jpg,534390,87,91,single-stim,A10GEOLHPUXK0T:3F6KKYWMNCYIHFFWIQH9ZP9W22ZDN8,"1. Northern Waterthrush
2. Ovenbird
3. Song Sparrow
4. Louisiana Waterthrush"
88,3,0-0,52,Expert,4408,/static/images/Expert/114_Lawrence's Goldfinch/Lawrence's Goldfinch2.jpg,539061,88,92,single-stim,A10GEOLHPUXK0T:3F6KKYWMNCYIHFFWIQH9ZP9W22ZDN8,"1. Evening Grosbeak
2. American Goldfinch
3. Lawrence's Goldfinch
4. Lesser Goldfinch"
89,1,0-0,50,Expert,3053,/static/images/Expert/103_Canyon Wren/Canyon Wren2.jpg,542222,89,93,single-stim,A10GEOLHPUXK0T:3F6KKYWMNCYIHFFWIQH9ZP9W22ZDN8,"1. Canyon Wren
2. Winter Wren
3. Sedge Wren
4. Rock Wren"
90,2,0-0,51,Expert,4262,/static/images/Expert/105_Varied Thrush/Varied Thrush2.jpg,546757,90,94,single-stim,A10GEOLHPUXK0T:3F6KKYWMNCYIHFFWIQH9ZP9W22ZDN8,"1. Veery
2. Varied Thrush
3. Swainson's Thrush
4. American Robin"
91,2,0-0,49,Expert,2391,/static/images/Expert/121_Ruby-crowned Kinglet/Ruby-crowned Kinglet2.jpg,549725,91,95,single-stim,A10GEOLHPUXK0T:3F6KKYWMNCYIHFFWIQH9ZP9W22ZDN8,"1. Hutton's Vireo
2. Ruby-crowned Kinglet
3. Golden-crowned Kinglet
4. Cassin's Vireo"
92,2,0-0,50,Expert,2540,/static/images/Expert/19_Western Wood-Pewee/B_Tyrant Flycatchers - Western Wood-Pewee - 004 - s001 - crop - col.jpg,552797,92,96,single-stim,A10GEOLHPUXK0T:3F6KKYWMNCYIHFFWIQH9ZP9W22ZDN8,"1. Eastern Phoebe
2. Western Wood-Pewee
3. Greater Pewee
4. Olive-sided Flycatcher"
93,1,0-0,49,Expert,1749,/static/images/Expert/117_Winter Wren/Winter Wren2.jpg,555093,93,97,single-stim,A10GEOLHPUXK0T:3F6KKYWMNCYIHFFWIQH9ZP9W22ZDN8,"1. Winter Wren
2. Marsh Wren
3. House Wren
4. Bewick's Wren"
94,1,0-0,49,Practice,3840,/static/images/Practice/06_Turkey Vulture/B_Hawks - Turkey Vulture - 013 - s083 - crop - col.jpg,77562,0,4,single-stim,A110KENBXU7SUJ:3AAJC4I4FHPP1QT7VAEEXABIHYEZJV,"1. Turkey Vulture
2. Ferruginous Hawk
3. Parasitic Jaeger
4. Northern Harrier"
95,3,0-0,50,Practice,3040,/static/images/Practice/08_Osprey/B_Hawks - Osprey - 005 - s000 - crop - col.jpg,80822,1,5,single-stim,A110KENBXU7SUJ:3AAJC4I4FHPP1QT7VAEEXABIHYEZJV,"1. Crested Caracara
2. Golden Eagle
3. Osprey
4. Ruffed Grouse"
96,4,0-0,52,Practice,3116,/static/images/Practice/04_Canada Goose/B_Ducks - Canada Goose - 004 - s000 - crop - col.jpg,84430,2,6,single-stim,A110KENBXU7SUJ:3AAJC4I4FHPP1QT7VAEEXABIHYEZJV,"1. Common Loon
2. Brant
3. Sanderling
4. Canada Goose"
97,4,0-0,52,Practice,4624,/static/images/Practice/03_Bald Eagle/B_Hawks - Bald Eagle - 012 - s074 - m - a - crop - col.jpg,89594,3,7,single-stim,A110KENBXU7SUJ:3AAJC4I4FHPP1QT7VAEEXABIHYEZJV,"1. Broad-winged Hawk
2. Golden Eagle
3. Great Egret
4. Bald Eagle"
98,1,0-0,49,Practice,4803,/static/images/Practice/02_Greater Roadrunner/B_Cuckoos - Greater Roadrunner - 002 - s010 - crop - col.jpg,94688,4,8,single-stim,A110KENBXU7SUJ:3AAJC4I4FHPP1QT7VAEEXABIHYEZJV,"1. Greater Roadrunner
2. Northern Bobwhite
3. Black-billed Cuckoo
4. Ruddy Turnstone"
99,1,0-0,50,Practice,6120,/static/images/Practice/09_Killdeer/B_Shorebirds - Killdeer - 012 - s086 - crop - col.jpg,101018,5,9,single-stim,A110KENBXU7SUJ:3AAJC4I4FHPP1QT7VAEEXABIHYEZJV,"1. Killdeer
2. Herring Gull
3. Willet
4. Piping Plover"
100,1,0-0,49,Practice,3986,/static/images/Practice/01_Barn Owl/B_Barn-owls - Common Barn-Owl - 094 - s000 - crop - col.jpg,105192,6,10,single-stim,A110KENBXU7SUJ:3AAJC4I4FHPP1QT7VAEEXABIHYEZJV,"1. Barn Owl
2. Common Poorwill
3. Barred Owl
4. American Bittern"
101,3,0-0,49,Practice,4668,/static/images/Practice/10_Great Blue Heron/B_Herons - Great Blue Heron - 013 - s085 - crop - col.jpg,110160,7,11,single-stim,A110KENBXU7SUJ:3AAJC4I4FHPP1QT7VAEEXABIHYEZJV,"1. American Avocet
2. Anhinga
3. Great Blue Heron
4. Cattle Egret"
102,1,0-0,49,Practice,3984,/static/images/Practice/05_Wood Duck/B_Ducks - Wood Duck - 004 - s000 - crop - col.jpg,114410,8,12,single-stim,A110KENBXU7SUJ:3AAJC4I4FHPP1QT7VAEEXABIHYEZJV,"1. Wood Duck
2. Harlequin Duck
3. Bridled Tern
4. Pied-billed Grebe"
103,2,0-0,50,Intermediate,8295,/static/images/Intermediate/04_Western Tanager/B_Cardinals and Grosbeaks - Western Tanager - 001 - s000 - crop - col.jpg,122950,9,13,single-stim,A110KENBXU7SUJ:3AAJC4I4FHPP1QT7VAEEXABIHYEZJV,"1. Varied Bunting
2. Western Tanager
3. Hepatic Tanager
4. Painted Bunting"
104,3,0-0,51,Novice,4372,/static/images/Novice/02_Northern Cardinal/B_Cardinals and Grosbeaks - Northern Cardinal - 002 - s000 - crop - col.jpg,127811,10,14,single-stim,A110KENBXU7SUJ:3AAJC4I4FHPP1QT7VAEEXABIHYEZJV,"1. Painted Bunting
2. Scarlet Tanager
3. Northern Cardinal
4. Mountain Chickadee"
105,2,0-0,50,Novice,3957,/static/images/Novice/06_American Robin/B_Thrushes - American Robin - 002 - s000 - crop - col.jpg,132311,11,15,single-stim,A110KENBXU7SUJ:3AAJC4I4FHPP1QT7VAEEXABIHYEZJV,"1. Swainson's Thrush
2. American Robin
3. Lazuli Bunting
4. Song Sparrow"
106,3,0-0,50,Beginner,5085,/static/images/Beginner/08_American Tree Sparrow/B_New World Sparrows - American Tree Sparrow - 002 - s000 - crop - col.jpg,137928,12,16,single-stim,A110KENBXU7SUJ:3AAJC4I4FHPP1QT7VAEEXABIHYEZJV,"1. Spotted Towhee
2. Western Meadowlark
3. American Tree Sparrow
4. Western Scrub-Jay"
107,4,0-0,52,Novice,4316,/static/images/Novice/03_European Starling/B_Starlings - European Starling - 009 - s000 - crop - col.jpg,142828,13,17,single-stim,A110KENBXU7SUJ:3AAJC4I4FHPP1QT7VAEEXABIHYEZJV,"1. Pine Grosbeak
2. Lark Bunting
3. Common Raven
4. European Starling"
108,2,0-0,49,Novice,4381,/static/images/Novice/07_American Goldfinch/B_Finches - American Goldfinch  - 002 - s000 - crop - col.jpg,147552,14,18,single-stim,A110KENBXU7SUJ:3AAJC4I4FHPP1QT7VAEEXABIHYEZJV,"1. House Finch
2. American Goldfinch
3. Yellow Grosbeak
4. Summer Tanager"
109,2,0-0,50,Novice,2517,"/static/images/Novice/09_Blue Jay/B_Jays, Magpies, and Crows - Blue Jay - 004 - s000 - crop - col.jpg",150464,15,19,single-stim,A110KENBXU7SUJ:3AAJC4I4FHPP1QT7VAEEXABIHYEZJV,"1. Carolina Wren
2. Blue Jay
3. Clark's Nutcracker
4. Mountain Bluebird"
110,2,0-0,52,Novice,4817,/static/images/Novice/01_Northern Mockingbird/B_Mockingbirds and Thrashers - Northern Mockingbird - 009 - s000 - crop - col.jpg,155861,16,20,single-stim,A110KENBXU7SUJ:3AAJC4I4FHPP1QT7VAEEXABIHYEZJV,"1. Barn Swallow
2. Northern Mockingbird
3. Brown Thrasher
4. Gray Catbird"
111,2,0-0,49,Novice,8730,/static/images/Novice/10_Rock Pigeon/B_Pigeons and Doves - Rock Pigeon (Rock dove) - 012 - crop - col.jpg,164837,17,21,single-stim,A110KENBXU7SUJ:3AAJC4I4FHPP1QT7VAEEXABIHYEZJV,"1. Mourning Dove
2. Rock Pigeon
3. Cape May Warbler
4. Least Flycatcher"
112,4,0-0,52,Intermediate,4865,"/static/images/Intermediate/11_Black-billed Magpie/B_Jays, Magpies, and Crows - Black-billed Magpie - 012 - s010 - crop - col.jpg",169958,18,22,single-stim,A110KENBXU7SUJ:3AAJC4I4FHPP1QT7VAEEXABIHYEZJV,"1. Lark Bunting
2. Brewer's Blackbird
3. American Crow
4. Black-billed Magpie"
113,1,0-0,50,Beginner,4546,"/static/images/Beginner/04_Steller's Jay/B_Jays, Magpies, and Crows - Steller's Jay - 002 - s000 - crop - col.jpg",174868,19,23,single-stim,A110KENBXU7SUJ:3AAJC4I4FHPP1QT7VAEEXABIHYEZJV,"1. Steller's Jay
2. Hermit Warbler
3. Blue Jay
4. Blue Grosbeak"
114,3,0-0,51,Intermediate,6083,/static/images/Intermediate/01_Wood Thrush/B_Thrushes - Wood Thrush - 004 - s000 - crop - col.jpg,181548,20,24,single-stim,A110KENBXU7SUJ:3AAJC4I4FHPP1QT7VAEEXABIHYEZJV,"1. Spragues's Pipit
2. Varied Thrush
3. Wood Thrush
4. American Pipit"
115,3,0-0,51,Intermediate,8240,/static/images/Intermediate/03_Painted Bunting/B_Cardinals and Grosbeaks - Painted Bunting - 006 - s000 - crop - col.jpg,190072,21,25,single-stim,A110KENBXU7SUJ:3AAJC4I4FHPP1QT7VAEEXABIHYEZJV,"1. Rose-breasted Grosbeak
2. Hooded Oriole
3. Painted Bunting
4. Lazuli Bunting"
116,3,0-0,52,Beginner,5365,"/static/images/Beginner/10_Western Scrub Jay/B_Jays, Magpies, and Crows - Western Scrub-Jay - 006 - s001 - crop - col.jpg",195914,22,26,single-stim,A110KENBXU7SUJ:3AAJC4I4FHPP1QT7VAEEXABIHYEZJV,"1. Indigo Bunting
2. Great Kiskadee
3. Western Scrub Jay
4. Steller's Jay"
117,4,0-0,51,Beginner,16687,/static/images/Beginner/01_House Finch/B_Finches - House Finch - 006 - s000 - crop - col.jpg,212974,23,27,single-stim,A110KENBXU7SUJ:3AAJC4I4FHPP1QT7VAEEXABIHYEZJV,"1. Common Redpoll
2. Flame-colored Tanager
3. Crissal Thrasher
4. House Finch"
118,2,0-0,50,Novice,3018,/static/images/Novice/04_Baltimore Oriole/B_Blackbirds - Baltimore Oriole - 004 - s001 - crop - col.jpg,216125,24,28,single-stim,A110KENBXU7SUJ:3AAJC4I4FHPP1QT7VAEEXABIHYEZJV,"1. Eastern Meadowlark
2. Baltimore Oriole
3. Blackburnian Warbler
4. Black-capped Chickadee"
119,3,0-0,49,Beginner,6823,/static/images/Beginner/06_Brown-headed Cowbird/B_Blackbirds - Brown-Headed Cowbird - 008 - s000 - crop - col.jpg,223156,25,29,single-stim,A110KENBXU7SUJ:3AAJC4I4FHPP1QT7VAEEXABIHYEZJV,"1. Cape May Warbler
2. Song Sparrow
3. Brown-headed Cowbird
4. Baltimore Oriole"
120,3,0-0,49,Intermediate,4717,/static/images/Intermediate/05_Cactus Wren/B_Wrens - Cactus Wren - 004 - s005 - crop - col.jpg,228440,26,30,single-stim,A110KENBXU7SUJ:3AAJC4I4FHPP1QT7VAEEXABIHYEZJV,"1. Abert's Towhee
2. Carolina Wren
3. Cactus Wren
4. Fox Sparrow"
121,1,0-0,50,Intermediate,6180,"/static/images/Intermediate/07_Clark's Nutcracker/B_Jays, Magpies, and Crows - Clark's Nutcracker - 001 - s001 - crop - col.jpg",234981,27,31,single-stim,A110KENBXU7SUJ:3AAJC4I4FHPP1QT7VAEEXABIHYEZJV,"1. Clark's Nutcracker
2. Scott's Oriole
3. Bridled Titmouse
4. Pinyon Jay"
122,1,0-0,50,Advanced,7575,/static/images/Advanced/06_Bay-breasted Warbler/B_Wood-warblers - Bay-breasted Warbler - 004 - s000 - crop - col.jpg,242834,28,32,single-stim,A110KENBXU7SUJ:3AAJC4I4FHPP1QT7VAEEXABIHYEZJV,"1. Bay-breasted Warbler
2. Pine Warbler
3. Blackburnian Warbler
4. Cape May Warbler"
123,3,0-0,51,Advanced,4555,/static/images/Advanced/15_Summer Tanager/B_Cardinals - Summer Tanager - 002 - s001 - crop - col.jpg,247726,29,33,single-stim,A110KENBXU7SUJ:3AAJC4I4FHPP1QT7VAEEXABIHYEZJV,"1. Flame-colored Tanager
2. Scarlet Tanager
3. Summer Tanager
4. Hepatic Tanager"
124,4,0-0,50,Advanced,4349,/static/images/Advanced/01_Blackburnian Warbler/B_Wood-warblers - Blackburnian Warbler - 001 - s000 - crop - col.jpg,252496,30,34,single-stim,A110KENBXU7SUJ:3AAJC4I4FHPP1QT7VAEEXABIHYEZJV,"1. Magnolia Warbler
2. Palm Warbler
3. Bay-breasted Warbler
4. Blackburnian Warbler"
125,4,0-0,50,Beginner,5039,/static/images/Beginner/03_Northern Flicker/B_Woodpeckers - Northern Flicker - 002 - s000 - crop - col.jpg,257871,31,35,single-stim,A110KENBXU7SUJ:3AAJC4I4FHPP1QT7VAEEXABIHYEZJV,"1. Brown Thrasher
2. Yellow-bellied Sapsucker
3. House Sparrow
4. Northern Flicker"
126,2,0-0,50,Advanced,2877,/static/images/Advanced/12_Yellow-breasted Chat/B_Wood-warblers - Yellow-breasted Chat - 006 - s000 - crop - col.jpg,261315,32,36,single-stim,A110KENBXU7SUJ:3AAJC4I4FHPP1QT7VAEEXABIHYEZJV,"1. Mourning Warbler
2. Yellow-breasted Chat
3. Wilson's Warbler
4. Common Yellowthroat"
127,2,0-0,49,Beginner,5941,/static/images/Beginner/07_Bushtit/B_Bushtits - Bushtit - 006 - s000 - crop - col.jpg,267831,33,37,single-stim,A110KENBXU7SUJ:3AAJC4I4FHPP1QT7VAEEXABIHYEZJV,"1. Verdin
2. Bushtit
3. Painted Bunting
4. Swamp Sparrow"
128,1,0-0,49,Intermediate,4363,/static/images/Intermediate/02_American Redstart/B_Wood-Warblers - American Redstart - 004 - s001 - crop - col.jpg,272640,34,38,single-stim,A110KENBXU7SUJ:3AAJC4I4FHPP1QT7VAEEXABIHYEZJV,"1. American Redstart
2. Ovenbird
3. Altamira Oriole
4. Cape May Warbler"
129,2,0-0,50,Advanced,6296,/static/images/Advanced/16_Bridled Titmouse/B_Chickadees and Titmice - Bridled Titmouse - 003 - s000 - crop - col.jpg,279268,35,39,single-stim,A110KENBXU7SUJ:3AAJC4I4FHPP1QT7VAEEXABIHYEZJV,"1. Tufted Titmouse
2. Bridled Titmouse
3. Black-crested Titmouse
4. Mountain Chickadee"
130,2,0-0,51,Advanced,8050,/static/images/Advanced/09_Scott's Oriole/B_Blackbirds - Scott's Oriole - 002 - s000 - crop - col.jpg,287731,36,40,single-stim,A110KENBXU7SUJ:3AAJC4I4FHPP1QT7VAEEXABIHYEZJV,"1. Bullock's Oriole
2. Scott's Oriole
3. Audubon's Oriole
4. Orchard Oriole"
131,2,0-0,50,Intermediate,5878,/static/images/Intermediate/10_Pileated Woodpecker/B_Woodpeckers - Pileated Woodpecker - 006 - s009 - f - a - spring - crop - col.jpg,294115,37,41,single-stim,A110KENBXU7SUJ:3AAJC4I4FHPP1QT7VAEEXABIHYEZJV,"1. Black-billed Magpie
2. Pileated Woodpecker
3. Downy Woodpecker
4. Townsend's Solitaire"
132,2,0-0,50,Intermediate,3517,/static/images/Intermediate/08_Cerulean Warbler/B_Wood-Warblers - Cerulean Warbler - 006 - s000 - crop - col.jpg,298088,38,42,single-stim,A110KENBXU7SUJ:3AAJC4I4FHPP1QT7VAEEXABIHYEZJV,"1. Collared Whitestart
2. Cerulean Warbler
3. Tropical Parula
4. Black throated Blue Warbler"
133,1,0-0,49,Beginner,3390,/static/images/Beginner/09_Red-winged Blackbird/B_Blackbird - Red-Winged Blackbird - 008 - s002 - m - a - spring - crop - col.jpg,301661,39,43,single-stim,A110KENBXU7SUJ:3AAJC4I4FHPP1QT7VAEEXABIHYEZJV,"1. Red-winged Blackbird
2. Scott's Oriole
3. American Redstart
4. Common Grackle"
134,3,0-0,50,Novice,3243,/static/images/Novice/05_Mourning Dove/B_Pigeons and Doves - Mourning Dove - 006 - s000 - crop - col.jpg,305070,40,44,single-stim,A110KENBXU7SUJ:3AAJC4I4FHPP1QT7VAEEXABIHYEZJV,"1. Lark Sparrow
2. Rock Pigeon
3. Mourning Dove
4. Loggerhead Shrike"
135,4,0-0,52,Advanced,5207,/static/images/Advanced/05_Bullock's Oriole/B_Blackbirds - Bullock's Oriole - 007 - s000 - crop - col.jpg,310396,41,45,single-stim,A110KENBXU7SUJ:3AAJC4I4FHPP1QT7VAEEXABIHYEZJV,"1. Altamira Oriole
2. Audubon's Oriole
3. Baltimore Oriole
4. Bullock's Oriole"
136,3,0-0,50,Beginner,4995,/static/images/Beginner/05_Red-bellied Woodpecker/B_Woodpeckers - Red-Bellied Woodpecker - 006 - s000 - crop - col.jpg,315858,42,46,single-stim,A110KENBXU7SUJ:3AAJC4I4FHPP1QT7VAEEXABIHYEZJV,"1. Northern Mockingbird
2. Pileated Woodpecker
3. Red-bellied Woodpecker
4. Vermillion Flycatcher"
137,3,0-0,52,Expert,6753,/static/images/Expert/07_Veery/B_Thrushes - Veery - 004 - s001 - crop - col.jpg,323063,43,47,single-stim,A110KENBXU7SUJ:3AAJC4I4FHPP1QT7VAEEXABIHYEZJV,"1. Wood Thrush
2. Hermit Thrush
3. Veery
4. Swainson's Thrush"
138,3,0-0,49,Expert,5054,/static/images/Expert/112_American Dipper/American Dipper2.jpg,328532,44,48,single-stim,A110KENBXU7SUJ:3AAJC4I4FHPP1QT7VAEEXABIHYEZJV,"1. Black Phoebe
2. Gray Jay
3. American Dipper
4. Gray Catbird"
139,1,0-0,49,Expert,4701,/static/images/Expert/107_Black-and-white Warbler/Black-and-white Warbler2.jpg,333461,45,49,single-stim,A110KENBXU7SUJ:3AAJC4I4FHPP1QT7VAEEXABIHYEZJV,"1. Black-and-white Warbler
2. Brown-headed Nuthatch
3. Red-breasted Nuthatch
4. White-breasted Nuthatch"
140,4,0-0,49,Advanced,3554,/static/images/Advanced/07_Acorn Woodpecker/B_Woodpeckers - Acorn Woodpecker - 005 - s004 - m - crop - col.jpg,337131,46,50,single-stim,A110KENBXU7SUJ:3AAJC4I4FHPP1QT7VAEEXABIHYEZJV,"1. Red-headed Woodpecker
2. Yellow-bellied Sapsucker
3. Gila Woodpecker
4. Acorn Woodpecker"
141,2,0-0,52,Expert,6317,/static/images/Expert/08_Chipping Sparrow/B_New World Sparrows - Chipping Sparrow - 005 - s000 - crop - col.jpg,343860,47,51,single-stim,A110KENBXU7SUJ:3AAJC4I4FHPP1QT7VAEEXABIHYEZJV,"1. American Tree Sparrow
2. Chipping Sparrow
3. Clay-colored Sparrow
4. Field Sparrow"
142,4,0-0,51,Expert,4232,/static/images/Expert/04_Nashville Warbler/B_Wood-warblers - Nashville Warbler - 004 - s001 - crop - col.jpg,348687,48,52,single-stim,A110KENBXU7SUJ:3AAJC4I4FHPP1QT7VAEEXABIHYEZJV,"1. Orange-crowned Warbler
2. Palm Warbler
3. Tennessee Warbler
4. Nashville Warbler"
143,3,0-0,50,Intermediate,5797,/static/images/Intermediate/12_Belted Kingfisher/B_Kingfisher - Belted Kingfisher - 012 - s010 - crop - col.jpg,354781,49,53,single-stim,A110KENBXU7SUJ:3AAJC4I4FHPP1QT7VAEEXABIHYEZJV,"1. Great Crested Flycatcher
2. Phainopepla
3. Belted Kingfisher
4. Bridled Titmouse"
144,3,0-0,50,Intermediate,5909,/static/images/Intermediate/09_Great Kiskadee/B_Flycatchers - Kiskadee Flycatcher (Greater Kiskadee) - 009 - s009 - crop - col.jpg,360915,50,54,single-stim,A110KENBXU7SUJ:3AAJC4I4FHPP1QT7VAEEXABIHYEZJV,"1. Yellow-throated Vireo
2. Brewer's Sparrow
3. Great Kiskadee
4. Say's Phoebe"
145,4,0-0,50,Expert,6207,/static/images/Expert/118_Spotted Towhee/Spotted Towhee2.jpg,367483,51,55,single-stim,A110KENBXU7SUJ:3AAJC4I4FHPP1QT7VAEEXABIHYEZJV,"1. American Redstart
2. Eastern Towhee
3. Baltimore Oriole
4. Spotted Towhee"
146,2,0-0,49,Intermediate,4918,/static/images/Intermediate/14_Vermilion Flycatcher/B_Tyrant Flycatcher - Vermilion Flycatcher - 001 - s000 - crop - col.jpg,372593,52,56,single-stim,A110KENBXU7SUJ:3AAJC4I4FHPP1QT7VAEEXABIHYEZJV,"1. Scarlet Tanager
2. Vermilion Flycatcher
3. Say's Phoebe
4. Great Kiskadee"
147,2,0-0,50,Intermediate,4351,/static/images/Intermediate/15_Blue Grosbeak/B_Cardinals and Grosbeaks - Blue Grosbeak - 002 - s001 - crop - col.jpg,377231,53,57,single-stim,A110KENBXU7SUJ:3AAJC4I4FHPP1QT7VAEEXABIHYEZJV,"1. Blue Jay
2. Blue Grosbeak
3. Cerulean Warbler
4. Indigo Bunting"
148,1,0-0,52,Advanced,5096,/static/images/Advanced/08_Indigo Bunting/B_Cardinals and Grosbeaks - Indigo Bunting - 004 - s000 - crop - col.jpg,382573,54,58,single-stim,A110KENBXU7SUJ:3AAJC4I4FHPP1QT7VAEEXABIHYEZJV,"1. Indigo Bunting
2. Lazuli Bunting
3. Blue Grosbeak
4. Eastern Bluebird"
149,3,0-0,52,Expert,4676,/static/images/Expert/108_Mountain Bluebird/Mountain Bluebird2.jpg,387571,55,59,single-stim,A110KENBXU7SUJ:3AAJC4I4FHPP1QT7VAEEXABIHYEZJV,"1. Eastern Bluebird
2. Western Bluebird
3. Mountain Bluebird
4. Blue Grosbeak"
150,4,0-0,52,Advanced,4240,/static/images/Advanced/19_Brown Creeper/B_Creepers - Brown Creeper - 004 - s000 - crop - col.jpg,391968,56,60,single-stim,A110KENBXU7SUJ:3AAJC4I4FHPP1QT7VAEEXABIHYEZJV,"1. Canyon Wren
2. Bewick's Wren
3. Cactus Wren
4. Brown Creeper"
151,1,0-0,51,Expert,4461,/static/images/Expert/101_Common Redpoll/Common Redpoll2.jpg,396649,57,61,single-stim,A110KENBXU7SUJ:3AAJC4I4FHPP1QT7VAEEXABIHYEZJV,"1. Common Redpoll
2. Hoary Redpoll
3. Cassin's Finch
4. Pine Siskin"
152,4,0-0,51,Expert,4733,/static/images/Expert/05_Fox Sparrow/B_New World Sparrows - Fox Sparrow - 005 - s009 - crop - col.jpg,401927,58,62,single-stim,A110KENBXU7SUJ:3AAJC4I4FHPP1QT7VAEEXABIHYEZJV,"1. Henslow's Sparrow
2. Song Sparrow
3. Sage Sparrow
4. Fox Sparrow"
153,2,0-0,51,Advanced,4227,/static/images/Advanced/18_Bobolink/B_Blackbirds - Bobolink - 002 - s000 - crop - col.jpg,406506,59,63,single-stim,A110KENBXU7SUJ:3AAJC4I4FHPP1QT7VAEEXABIHYEZJV,"1. Eastern Meadowlark
2. Bobolink
3. Yellow-headed Blackbird
4. Lark Bunting"
154,1,0-0,50,Expert,2742,/static/images/Expert/18_Eastern Towhee/B_New World Sparrows - Eastern Towhee - 001 - s002 - m - a - fall - crop - col.jpg,409439,60,64,single-stim,A110KENBXU7SUJ:3AAJC4I4FHPP1QT7VAEEXABIHYEZJV,"1. Eastern Towhee
2. Lark Sparrow
3. Spotted Towhee
4. Black-headed Grosbeak"
155,3,0-0,50,Expert,3796,/static/images/Expert/11_Blue-headed Vireo/B_Vireos - Blue-headed Vireo - 001 - s001 - crop - col.jpg,413506,61,65,single-stim,A110KENBXU7SUJ:3AAJC4I4FHPP1QT7VAEEXABIHYEZJV,"1. Hutton's Vireo
2. Warbling Vireo
3. Blue-headed Vireo
4. Cassin's Vireo"
156,3,0-0,49,Expert,6329,/static/images/Expert/120_Hermit Warbler/Hermit Warbler2.jpg,420193,62,66,single-stim,A110KENBXU7SUJ:3AAJC4I4FHPP1QT7VAEEXABIHYEZJV,"1. Townsend's Warbler
2. Golden-cheeked Warbler
3. Hermit Warbler
4. Black-throated Green Warbler"
157,3,0-0,52,Expert,6839,/static/images/Expert/109_White-breasted Nuthatch/White-breasted Nuthatch2.jpg,427171,63,67,single-stim,A110KENBXU7SUJ:3AAJC4I4FHPP1QT7VAEEXABIHYEZJV,"1. Pygmy Nuthatch
2. Tufted Titmouse
3. White-breasted Nuthatch
4. Carolina Chickadee"
158,1,0-0,52,Expert,4807,/static/images/Expert/13_Golden-fronted Woodpecker/B_Woodpecker - Golden-fronted Woodpecker - 004 - s000 - crop - col.jpg,432161,64,68,single-stim,A110KENBXU7SUJ:3AAJC4I4FHPP1QT7VAEEXABIHYEZJV,"1. Golden-fronted Woodpecker
2. Red-bellied Woodpecker
3. Gila Woodpecker
4. Red-headed Woodpecker"
159,4,0-0,51,Expert,5114,/static/images/Expert/10_Warbling Vireo/B_Vieros - Warbling Vireo - 004 - s001 - crop - col.jpg,437448,65,69,single-stim,A110KENBXU7SUJ:3AAJC4I4FHPP1QT7VAEEXABIHYEZJV,"1. Bell's Vireo
2. Philadelphia Vireo
3. Hutton's Vireo
4. Warbling Vireo"
160,3,0-0,50,Expert,4678,/static/images/Expert/01_Townsend's Warbler/B_Wood-warblers - Townsends's Warbler - 002 - s000 - crop - col.jpg,442426,66,70,single-stim,A110KENBXU7SUJ:3AAJC4I4FHPP1QT7VAEEXABIHYEZJV,"1. Magnolia Warbler
2. Blackburnian Warbler
3. Townsend's Warbler
4. Black-throated Green Warbler"
161,2,0-0,51,Expert,6241,/static/images/Expert/17_Yellow-bellied Sapsucker/B_Woodpeckers - Yellow-bellied Sapsucker - 003 - s000 - crop - col.jpg,448813,67,71,single-stim,A110KENBXU7SUJ:3AAJC4I4FHPP1QT7VAEEXABIHYEZJV,"1. Golden-fronted Woodpecker
2. Yellow-bellied Sapsucker
3. Ladder-backed Woodpecker
4. Red-Naped Sapsucker"
162,3,0-0,51,Expert,5357,/static/images/Expert/110_Pygmy Nuthatch/Pygmy Nuthatch2.jpg,454359,68,72,single-stim,A110KENBXU7SUJ:3AAJC4I4FHPP1QT7VAEEXABIHYEZJV,"1. Bushtit
2. Brown-headed Nuthatch
3. Pygmy Nuthatch
4. White-breasted Nuthatch"
163,1,0-0,50,Expert,3656,/static/images/Expert/116_Hermit Thrush/Hermit Thrush2.jpg,458592,69,73,single-stim,A110KENBXU7SUJ:3AAJC4I4FHPP1QT7VAEEXABIHYEZJV,"1. Hermit Thrush
2. Wood Thrush
3. Veery
4. Swainson's Thrush"
164,1,0-0,52,Advanced,2284,/static/images/Advanced/02_Prothonotary Warbler/B_Wood-warblers - Prothonotary Warbler - 002 - s000 - crop - col.jpg,461144,70,74,single-stim,A110KENBXU7SUJ:3AAJC4I4FHPP1QT7VAEEXABIHYEZJV,"1. Prothonotary Warbler
2. Wilson's Warbler
3. Prairie Warbler
4. Yellow Warbler"
165,1,0-0,51,Expert,4295,/static/images/Expert/14_Wilson's Warbler/B_Wood-warblers - Wilson's Warbler - 002 - s001 - crop - col.jpg,465601,71,75,single-stim,A110KENBXU7SUJ:3AAJC4I4FHPP1QT7VAEEXABIHYEZJV,"1. Wilson's Warbler
2. Yellow Warbler
3. Common Yellowthroat
4. Hooded Warbler"
166,4,0-0,51,Expert,3486,/static/images/Expert/115_Vesper Sparrow/Vesper Sparrow2.jpg,469189,72,76,single-stim,A110KENBXU7SUJ:3AAJC4I4FHPP1QT7VAEEXABIHYEZJV,"1. Swamp Sparrow
2. Lincoln's Sparrow
3. Song Sparrow
4. Vesper Sparrow"
167,1,0-0,52,Advanced,6038,/static/images/Advanced/11_Say's Phoebe/B_Tyrant Flycatchers - Say's Phoebe - 004 - s000 - crop - col.jpg,475615,73,77,single-stim,A110KENBXU7SUJ:3AAJC4I4FHPP1QT7VAEEXABIHYEZJV,"1. Say's Phoebe
2. Black Phoebe
3. Olive-sided Flycatcher
4. Eastern Phoebe"
168,4,0-0,51,Intermediate,6112,/static/images/Intermediate/06_Phainopepla/B_Silky-Flycatchers - Phainopepla - 003 - s000 - m - a -crop - col.jpg,482061,74,78,single-stim,A110KENBXU7SUJ:3AAJC4I4FHPP1QT7VAEEXABIHYEZJV,"1. Northern Cardinal
2. Cedar Waxwing
3. Pyrrhuloxia
4. Phainopepla"
169,1,0-0,50,Expert,3388,/static/images/Expert/06_White-crowned Sparrow/B_Sparrows - White-crowned Sparrow - 003 - s000 - crop - col.jpg,485689,75,79,single-stim,A110KENBXU7SUJ:3AAJC4I4FHPP1QT7VAEEXABIHYEZJV,"1. White-crowned Sparrow
2. Swamp Sparrow
3. White-throated Sparrow
4. Song Sparrow"
170,4,0-0,51,Advanced,4996,"/static/images/Advanced/13_Common Raven/B_Jays, Magpies, and Crows - Common Raven - 006 - s000 - m - a -crop - col.jpg",491183,76,80,single-stim,A110KENBXU7SUJ:3AAJC4I4FHPP1QT7VAEEXABIHYEZJV,"1. Fish Crow
2. American Crow
3. Gray Jay
4. Common Raven"
171,4,0-0,52,Expert,3548,/static/images/Expert/09_Purple Martin/B_Swallows - Purple Martin - 006 - s001 - crop - col.jpg,495115,77,81,single-stim,A110KENBXU7SUJ:3AAJC4I4FHPP1QT7VAEEXABIHYEZJV,"1. Barn Swallow
2. Common Grackle
3. Tree Swallow
4. Purple Martin"
172,3,0-0,50,Intermediate,4897,/static/images/Intermediate/13_Pyrrhuloxia/B_Cardinals and Grosbeaks - Pyrrhuloxia - 012 - s010 - m - crop - col.jpg,500205,78,82,single-stim,A110KENBXU7SUJ:3AAJC4I4FHPP1QT7VAEEXABIHYEZJV,"1. Scarlet Tanager
2. Northern Cardinal
3. Pyrrhuloxia
4. Bobolink"
173,1,0-0,51,Expert,18939,/static/images/Expert/20_Northern Rough-winged Swallow/B_Swallows - Northern Rough-winged Swallow - 003 - s001 - crop - col.jpg,519488,79,83,single-stim,A110KENBXU7SUJ:3AAJC4I4FHPP1QT7VAEEXABIHYEZJV,"1. Northern Rough-winged Swallow
2. Barn Swallow
3. Tree Swallow
4. Bank Swallow"
174,2,0-0,50,Expert,4793,/static/images/Expert/104_Evening Grosbeak/Evening Grosbeak2.jpg,524610,80,84,single-stim,A110KENBXU7SUJ:3AAJC4I4FHPP1QT7VAEEXABIHYEZJV,"1. American Goldfinch
2. Evening Grosbeak
3. Purple Finch
4. Pine Grosbeak"
175,4,0-0,52,Expert,4258,/static/images/Expert/111_Brown-headed Nuthatch/Brown-headed Nuthatch2.jpg,529393,81,85,single-stim,A110KENBXU7SUJ:3AAJC4I4FHPP1QT7VAEEXABIHYEZJV,"1. Brown Creeper
2. Pygmy Nuthatch
3. Red-breasted Nuthatch
4. Brown-headed Nuthatch"
176,4,0-0,51,Expert,5046,/static/images/Expert/113_White-winged Dove/White-winged Dove2.jpg,534977,82,86,single-stim,A110KENBXU7SUJ:3AAJC4I4FHPP1QT7VAEEXABIHYEZJV,"1. White-tipped Dove
2. Inca Dove
3. Common Ground Dove
4. White-winged Dove"
177,2,0-0,49,Expert,1640,/static/images/Expert/106_Townsend's Solitaire/Townsend's Solitaire2.jpg,537196,83,87,single-stim,A110KENBXU7SUJ:3AAJC4I4FHPP1QT7VAEEXABIHYEZJV,"1. Gray-cheeked Thrush
2. Townsend's Solitaire
3. Northern Shrike
4. Mountain bluebird"
178,2,0-0,50,Beginner,5562,/static/images/Beginner/02_Carolina Wren/B_Wrens - Carolina Wren - 005 - s000 - crop - col.jpg,543127,84,88,single-stim,A110KENBXU7SUJ:3AAJC4I4FHPP1QT7VAEEXABIHYEZJV,"1. Ovenbird
2. Carolina Wren
3. Cactus Wren
4. Tufted Titmouse"
179,2,0-0,49,Expert,3633,/static/images/Expert/03_Ovenbird/B_Wood-warblers - Ovenbird - 013 - s010 - crop - col.jpg,546862,85,89,single-stim,A110KENBXU7SUJ:3AAJC4I4FHPP1QT7VAEEXABIHYEZJV,"1. Lark Sparrow
2. Ovenbird
3. Louisiana Waterthrush
4. Northern Waterthrush"
180,3,0-0,51,Expert,5664,/static/images/Expert/102_Verdin/Verdin2.jpg,552764,86,90,single-stim,A110KENBXU7SUJ:3AAJC4I4FHPP1QT7VAEEXABIHYEZJV,"1. Bushtit
2. Lucy's Warbler
3. Verdin
4. Blue-gray Gnatcatchers"
181,4,0-0,52,Expert,3599,/static/images/Expert/119_Louisiana Waterthrush/Louisiana Waterthrush2.jpg,556567,87,91,single-stim,A110KENBXU7SUJ:3AAJC4I4FHPP1QT7VAEEXABIHYEZJV,"1. Northern Waterthrush
2. Ovenbird
3. Song Sparrow
4. Louisiana Waterthrush"
182,3,0-0,50,Expert,2234,/static/images/Expert/114_Lawrence's Goldfinch/Lawrence's Goldfinch2.jpg,559041,88,92,single-stim,A110KENBXU7SUJ:3AAJC4I4FHPP1QT7VAEEXABIHYEZJV,"1. Evening Grosbeak
2. American Goldfinch
3. Lawrence's Goldfinch
4. Lesser Goldfinch"
183,1,0-0,50,Expert,4534,/static/images/Expert/103_Canyon Wren/Canyon Wren2.jpg,563917,89,93,single-stim,A110KENBXU7SUJ:3AAJC4I4FHPP1QT7VAEEXABIHYEZJV,"1. Canyon Wren
2. Winter Wren
3. Sedge Wren
4. Rock Wren"
184,2,0-0,49,Expert,4677,/static/images/Expert/105_Varied Thrush/Varied Thrush2.jpg,568778,90,94,single-stim,A110KENBXU7SUJ:3AAJC4I4FHPP1QT7VAEEXABIHYEZJV,"1. Veery
2. Varied Thrush
3. Swainson's Thrush
4. American Robin"
185,2,0-0,52,Expert,5981,/static/images/Expert/121_Ruby-crowned Kinglet/Ruby-crowned Kinglet2.jpg,574939,91,95,single-stim,A110KENBXU7SUJ:3AAJC4I4FHPP1QT7VAEEXABIHYEZJV,"1. Hutton's Vireo
2. Ruby-crowned Kinglet
3. Golden-crowned Kinglet
4. Cassin's Vireo"
186,2,0-0,51,Expert,4251,/static/images/Expert/19_Western Wood-Pewee/B_Tyrant Flycatchers - Western Wood-Pewee - 004 - s001 - crop - col.jpg,579568,92,96,single-stim,A110KENBXU7SUJ:3AAJC4I4FHPP1QT7VAEEXABIHYEZJV,"1. Eastern Phoebe
2. Western Wood-Pewee
3. Greater Pewee
4. Olive-sided Flycatcher"
187,1,0-0,50,Expert,3192,/static/images/Expert/117_Winter Wren/Winter Wren2.jpg,583263,93,97,single-stim,A110KENBXU7SUJ:3AAJC4I4FHPP1QT7VAEEXABIHYEZJV,"1. Winter Wren
2. Marsh Wren
3. House Wren
4. Bewick's Wren"
188,1,0-0,49,Practice,1749,/static/images/Practice/06_Turkey Vulture/B_Hawks - Turkey Vulture - 013 - s083 - crop - col.jpg,111239,0,4,single-stim,A1467A93JOZ1CG:32XVDSJFP0UPWNWG90ISQRTS0IH2MZ,"1. Turkey Vulture
2. Ferruginous Hawk
3. Parasitic Jaeger
4. Northern Harrier"
189,3,0-0,51,Practice,2908,/static/images/Practice/08_Osprey/B_Hawks - Osprey - 005 - s000 - crop - col.jpg,114257,1,5,single-stim,A1467A93JOZ1CG:32XVDSJFP0UPWNWG90ISQRTS0IH2MZ,"1. Crested Caracara
2. Golden Eagle
3. Osprey
4. Ruffed Grouse"
190,4,0-0,52,Practice,2295,/static/images/Practice/04_Canada Goose/B_Ducks - Canada Goose - 004 - s000 - crop - col.jpg,117127,2,6,single-stim,A1467A93JOZ1CG:32XVDSJFP0UPWNWG90ISQRTS0IH2MZ,"1. Common Loon
2. Brant
3. Sanderling
4. Canada Goose"
191,4,0-0,52,Practice,3419,/static/images/Practice/03_Bald Eagle/B_Hawks - Bald Eagle - 012 - s074 - m - a - crop - col.jpg,121102,3,7,single-stim,A1467A93JOZ1CG:32XVDSJFP0UPWNWG90ISQRTS0IH2MZ,"1. Broad-winged Hawk
2. Golden Eagle
3. Great Egret
4. Bald Eagle"
192,1,0-0,49,Practice,4471,/static/images/Practice/02_Greater Roadrunner/B_Cuckoos - Greater Roadrunner - 002 - s010 - crop - col.jpg,125813,4,8,single-stim,A1467A93JOZ1CG:32XVDSJFP0UPWNWG90ISQRTS0IH2MZ,"1. Greater Roadrunner
2. Northern Bobwhite
3. Black-billed Cuckoo
4. Ruddy Turnstone"
193,1,0-0,52,Practice,4039,/static/images/Practice/09_Killdeer/B_Shorebirds - Killdeer - 012 - s086 - crop - col.jpg,130148,5,9,single-stim,A1467A93JOZ1CG:32XVDSJFP0UPWNWG90ISQRTS0IH2MZ,"1. Killdeer
2. Herring Gull
3. Willet
4. Piping Plover"
194,1,0-0,50,Practice,3423,/static/images/Practice/01_Barn Owl/B_Barn-owls - Common Barn-Owl - 094 - s000 - crop - col.jpg,133847,6,10,single-stim,A1467A93JOZ1CG:32XVDSJFP0UPWNWG90ISQRTS0IH2MZ,"1. Barn Owl
2. Common Poorwill
3. Barred Owl
4. American Bittern"
195,3,0-0,50,Practice,2549,/static/images/Practice/10_Great Blue Heron/B_Herons - Great Blue Heron - 013 - s085 - crop - col.jpg,136667,7,11,single-stim,A1467A93JOZ1CG:32XVDSJFP0UPWNWG90ISQRTS0IH2MZ,"1. American Avocet
2. Anhinga
3. Great Blue Heron
4. Cattle Egret"
196,1,0-0,49,Practice,3559,/static/images/Practice/05_Wood Duck/B_Ducks - Wood Duck - 004 - s000 - crop - col.jpg,140333,8,12,single-stim,A1467A93JOZ1CG:32XVDSJFP0UPWNWG90ISQRTS0IH2MZ,"1. Wood Duck
2. Harlequin Duck
3. Bridled Tern
4. Pied-billed Grebe"
197,2,0-0,50,Intermediate,4001,/static/images/Intermediate/04_Western Tanager/B_Cardinals and Grosbeaks - Western Tanager - 001 - s000 - crop - col.jpg,144461,9,13,single-stim,A1467A93JOZ1CG:32XVDSJFP0UPWNWG90ISQRTS0IH2MZ,"1. Varied Bunting
2. Western Tanager
3. Hepatic Tanager
4. Painted Bunting"
198,3,0-0,50,Novice,4054,/static/images/Novice/02_Northern Cardinal/B_Cardinals and Grosbeaks - Northern Cardinal - 002 - s000 - crop - col.jpg,148766,10,14,single-stim,A1467A93JOZ1CG:32XVDSJFP0UPWNWG90ISQRTS0IH2MZ,"1. Painted Bunting
2. Scarlet Tanager
3. Northern Cardinal
4. Mountain Chickadee"
199,2,0-0,50,Novice,4516,/static/images/Novice/06_American Robin/B_Thrushes - American Robin - 002 - s000 - crop - col.jpg,153517,11,15,single-stim,A1467A93JOZ1CG:32XVDSJFP0UPWNWG90ISQRTS0IH2MZ,"1. Swainson's Thrush
2. American Robin
3. Lazuli Bunting
4. Song Sparrow"
200,3,0-0,52,Beginner,5526,/static/images/Beginner/08_American Tree Sparrow/B_New World Sparrows - American Tree Sparrow - 002 - s000 - crop - col.jpg,159611,12,16,single-stim,A1467A93JOZ1CG:32XVDSJFP0UPWNWG90ISQRTS0IH2MZ,"1. Spotted Towhee
2. Western Meadowlark
3. American Tree Sparrow
4. Western Scrub-Jay"
201,4,0-0,52,Novice,4164,/static/images/Novice/03_European Starling/B_Starlings - European Starling - 009 - s000 - crop - col.jpg,163885,13,17,single-stim,A1467A93JOZ1CG:32XVDSJFP0UPWNWG90ISQRTS0IH2MZ,"1. Pine Grosbeak
2. Lark Bunting
3. Common Raven
4. European Starling"
202,2,0-0,50,Novice,4149,/static/images/Novice/07_American Goldfinch/B_Finches - American Goldfinch  - 002 - s000 - crop - col.jpg,168341,14,18,single-stim,A1467A93JOZ1CG:32XVDSJFP0UPWNWG90ISQRTS0IH2MZ,"1. House Finch
2. American Goldfinch
3. Yellow Grosbeak
4. Summer Tanager"
203,2,0-0,50,Novice,4543,"/static/images/Novice/09_Blue Jay/B_Jays, Magpies, and Crows - Blue Jay - 004 - s000 - crop - col.jpg",173230,15,19,single-stim,A1467A93JOZ1CG:32XVDSJFP0UPWNWG90ISQRTS0IH2MZ,"1. Carolina Wren
2. Blue Jay
3. Clark's Nutcracker
4. Mountain Bluebird"
204,2,0-0,50,Novice,4418,/static/images/Novice/01_Northern Mockingbird/B_Mockingbirds and Thrashers - Northern Mockingbird - 009 - s000 - crop - col.jpg,178020,16,20,single-stim,A1467A93JOZ1CG:32XVDSJFP0UPWNWG90ISQRTS0IH2MZ,"1. Barn Swallow
2. Northern Mockingbird
3. Brown Thrasher
4. Gray Catbird"
205,2,0-0,50,Novice,5256,/static/images/Novice/10_Rock Pigeon/B_Pigeons and Doves - Rock Pigeon (Rock dove) - 012 - crop - col.jpg,183865,17,21,single-stim,A1467A93JOZ1CG:32XVDSJFP0UPWNWG90ISQRTS0IH2MZ,"1. Mourning Dove
2. Rock Pigeon
3. Cape May Warbler
4. Least Flycatcher"
206,4,0-0,50,Intermediate,3797,"/static/images/Intermediate/11_Black-billed Magpie/B_Jays, Magpies, and Crows - Black-billed Magpie - 012 - s010 - crop - col.jpg",187936,18,22,single-stim,A1467A93JOZ1CG:32XVDSJFP0UPWNWG90ISQRTS0IH2MZ,"1. Lark Bunting
2. Brewer's Blackbird
3. American Crow
4. Black-billed Magpie"
207,1,0-0,49,Beginner,3673,"/static/images/Beginner/04_Steller's Jay/B_Jays, Magpies, and Crows - Steller's Jay - 002 - s000 - crop - col.jpg",192140,19,23,single-stim,A1467A93JOZ1CG:32XVDSJFP0UPWNWG90ISQRTS0IH2MZ,"1. Steller's Jay
2. Hermit Warbler
3. Blue Jay
4. Blue Grosbeak"
208,3,0-0,51,Intermediate,3398,/static/images/Intermediate/01_Wood Thrush/B_Thrushes - Wood Thrush - 004 - s000 - crop - col.jpg,195758,20,24,single-stim,A1467A93JOZ1CG:32XVDSJFP0UPWNWG90ISQRTS0IH2MZ,"1. Spragues's Pipit
2. Varied Thrush
3. Wood Thrush
4. American Pipit"
209,3,0-0,51,Intermediate,4083,/static/images/Intermediate/03_Painted Bunting/B_Cardinals and Grosbeaks - Painted Bunting - 006 - s000 - crop - col.jpg,200414,21,25,single-stim,A1467A93JOZ1CG:32XVDSJFP0UPWNWG90ISQRTS0IH2MZ,"1. Rose-breasted Grosbeak
2. Hooded Oriole
3. Painted Bunting
4. Lazuli Bunting"
210,3,0-0,49,Beginner,4129,"/static/images/Beginner/10_Western Scrub Jay/B_Jays, Magpies, and Crows - Western Scrub-Jay - 006 - s001 - crop - col.jpg",204717,22,26,single-stim,A1467A93JOZ1CG:32XVDSJFP0UPWNWG90ISQRTS0IH2MZ,"1. Indigo Bunting
2. Great Kiskadee
3. Western Scrub Jay
4. Steller's Jay"
211,4,0-0,50,Beginner,4391,/static/images/Beginner/01_House Finch/B_Finches - House Finch - 006 - s000 - crop - col.jpg,209586,23,27,single-stim,A1467A93JOZ1CG:32XVDSJFP0UPWNWG90ISQRTS0IH2MZ,"1. Common Redpoll
2. Flame-colored Tanager
3. Crissal Thrasher
4. House Finch"
212,2,0-0,52,Novice,4567,/static/images/Novice/04_Baltimore Oriole/B_Blackbirds - Baltimore Oriole - 004 - s001 - crop - col.jpg,214604,24,28,single-stim,A1467A93JOZ1CG:32XVDSJFP0UPWNWG90ISQRTS0IH2MZ,"1. Eastern Meadowlark
2. Baltimore Oriole
3. Blackburnian Warbler
4. Black-capped Chickadee"
213,3,0-0,50,Beginner,4401,/static/images/Beginner/06_Brown-headed Cowbird/B_Blackbirds - Brown-Headed Cowbird - 008 - s000 - crop - col.jpg,219515,25,29,single-stim,A1467A93JOZ1CG:32XVDSJFP0UPWNWG90ISQRTS0IH2MZ,"1. Cape May Warbler
2. Song Sparrow
3. Brown-headed Cowbird
4. Baltimore Oriole"
214,3,0-0,51,Intermediate,3119,/static/images/Intermediate/05_Cactus Wren/B_Wrens - Cactus Wren - 004 - s005 - crop - col.jpg,223027,26,30,single-stim,A1467A93JOZ1CG:32XVDSJFP0UPWNWG90ISQRTS0IH2MZ,"1. Abert's Towhee
2. Carolina Wren
3. Cactus Wren
4. Fox Sparrow"
215,1,0-0,49,Intermediate,3883,"/static/images/Intermediate/07_Clark's Nutcracker/B_Jays, Magpies, and Crows - Clark's Nutcracker - 001 - s001 - crop - col.jpg",227313,27,31,single-stim,A1467A93JOZ1CG:32XVDSJFP0UPWNWG90ISQRTS0IH2MZ,"1. Clark's Nutcracker
2. Scott's Oriole
3. Bridled Titmouse
4. Pinyon Jay"
216,1,0-0,50,Advanced,2748,/static/images/Advanced/06_Bay-breasted Warbler/B_Wood-warblers - Bay-breasted Warbler - 004 - s000 - crop - col.jpg,230430,28,32,single-stim,A1467A93JOZ1CG:32XVDSJFP0UPWNWG90ISQRTS0IH2MZ,"1. Bay-breasted Warbler
2. Pine Warbler
3. Blackburnian Warbler
4. Cape May Warbler"
217,3,0-0,50,Advanced,4245,/static/images/Advanced/15_Summer Tanager/B_Cardinals - Summer Tanager - 002 - s001 - crop - col.jpg,235129,29,33,single-stim,A1467A93JOZ1CG:32XVDSJFP0UPWNWG90ISQRTS0IH2MZ,"1. Flame-colored Tanager
2. Scarlet Tanager
3. Summer Tanager
4. Hepatic Tanager"
218,4,0-0,49,Advanced,4425,/static/images/Advanced/01_Blackburnian Warbler/B_Wood-warblers - Blackburnian Warbler - 001 - s000 - crop - col.jpg,239781,30,34,single-stim,A1467A93JOZ1CG:32XVDSJFP0UPWNWG90ISQRTS0IH2MZ,"1. Magnolia Warbler
2. Palm Warbler
3. Bay-breasted Warbler
4. Blackburnian Warbler"
219,4,0-0,52,Beginner,5356,/static/images/Beginner/03_Northern Flicker/B_Woodpeckers - Northern Flicker - 002 - s000 - crop - col.jpg,245271,31,35,single-stim,A1467A93JOZ1CG:32XVDSJFP0UPWNWG90ISQRTS0IH2MZ,"1. Brown Thrasher
2. Yellow-bellied Sapsucker
3. House Sparrow
4. Northern Flicker"
220,2,0-0,50,Advanced,3091,/static/images/Advanced/12_Yellow-breasted Chat/B_Wood-warblers - Yellow-breasted Chat - 006 - s000 - crop - col.jpg,248950,32,36,single-stim,A1467A93JOZ1CG:32XVDSJFP0UPWNWG90ISQRTS0IH2MZ,"1. Mourning Warbler
2. Yellow-breasted Chat
3. Wilson's Warbler
4. Common Yellowthroat"
221,2,0-0,50,Beginner,3426,/static/images/Beginner/07_Bushtit/B_Bushtits - Bushtit - 006 - s000 - crop - col.jpg,252612,33,37,single-stim,A1467A93JOZ1CG:32XVDSJFP0UPWNWG90ISQRTS0IH2MZ,"1. Verdin
2. Bushtit
3. Painted Bunting
4. Swamp Sparrow"
222,1,0-0,52,Intermediate,3408,/static/images/Intermediate/02_American Redstart/B_Wood-Warblers - American Redstart - 004 - s001 - crop - col.jpg,256206,34,38,single-stim,A1467A93JOZ1CG:32XVDSJFP0UPWNWG90ISQRTS0IH2MZ,"1. American Redstart
2. Ovenbird
3. Altamira Oriole
4. Cape May Warbler"
223,2,0-0,49,Advanced,3236,/static/images/Advanced/16_Bridled Titmouse/B_Chickadees and Titmice - Bridled Titmouse - 003 - s000 - crop - col.jpg,259687,35,39,single-stim,A1467A93JOZ1CG:32XVDSJFP0UPWNWG90ISQRTS0IH2MZ,"1. Tufted Titmouse
2. Bridled Titmouse
3. Black-crested Titmouse
4. Mountain Chickadee"
224,2,0-0,50,Advanced,3528,/static/images/Advanced/09_Scott's Oriole/B_Blackbirds - Scott's Oriole - 002 - s000 - crop - col.jpg,263806,36,40,single-stim,A1467A93JOZ1CG:32XVDSJFP0UPWNWG90ISQRTS0IH2MZ,"1. Bullock's Oriole
2. Scott's Oriole
3. Audubon's Oriole
4. Orchard Oriole"
225,2,0-0,50,Intermediate,3659,/static/images/Intermediate/10_Pileated Woodpecker/B_Woodpeckers - Pileated Woodpecker - 006 - s009 - f - a - spring - crop - col.jpg,268060,37,41,single-stim,A1467A93JOZ1CG:32XVDSJFP0UPWNWG90ISQRTS0IH2MZ,"1. Black-billed Magpie
2. Pileated Woodpecker
3. Downy Woodpecker
4. Townsend's Solitaire"
226,2,0-0,50,Intermediate,3846,/static/images/Intermediate/08_Cerulean Warbler/B_Wood-Warblers - Cerulean Warbler - 006 - s000 - crop - col.jpg,272448,38,42,single-stim,A1467A93JOZ1CG:32XVDSJFP0UPWNWG90ISQRTS0IH2MZ,"1. Collared Whitestart
2. Cerulean Warbler
3. Tropical Parula
4. Black throated Blue Warbler"
227,1,0-0,49,Beginner,3430,/static/images/Beginner/09_Red-winged Blackbird/B_Blackbird - Red-Winged Blackbird - 008 - s002 - m - a - spring - crop - col.jpg,276160,39,43,single-stim,A1467A93JOZ1CG:32XVDSJFP0UPWNWG90ISQRTS0IH2MZ,"1. Red-winged Blackbird
2. Scott's Oriole
3. American Redstart
4. Common Grackle"
228,3,0-0,51,Novice,4626,/static/images/Novice/05_Mourning Dove/B_Pigeons and Doves - Mourning Dove - 006 - s000 - crop - col.jpg,280975,40,44,single-stim,A1467A93JOZ1CG:32XVDSJFP0UPWNWG90ISQRTS0IH2MZ,"1. Lark Sparrow
2. Rock Pigeon
3. Mourning Dove
4. Loggerhead Shrike"
229,4,0-0,51,Advanced,5455,/static/images/Advanced/05_Bullock's Oriole/B_Blackbirds - Bullock's Oriole - 007 - s000 - crop - col.jpg,286569,41,45,single-stim,A1467A93JOZ1CG:32XVDSJFP0UPWNWG90ISQRTS0IH2MZ,"1. Altamira Oriole
2. Audubon's Oriole
3. Baltimore Oriole
4. Bullock's Oriole"
230,3,0-0,51,Beginner,4507,/static/images/Beginner/05_Red-bellied Woodpecker/B_Woodpeckers - Red-Bellied Woodpecker - 006 - s000 - crop - col.jpg,291261,42,46,single-stim,A1467A93JOZ1CG:32XVDSJFP0UPWNWG90ISQRTS0IH2MZ,"1. Northern Mockingbird
2. Pileated Woodpecker
3. Red-bellied Woodpecker
4. Vermillion Flycatcher"
231,3,0-0,49,Expert,2401,/static/images/Expert/07_Veery/B_Thrushes - Veery - 004 - s001 - crop - col.jpg,294088,43,47,single-stim,A1467A93JOZ1CG:32XVDSJFP0UPWNWG90ISQRTS0IH2MZ,"1. Wood Thrush
2. Hermit Thrush
3. Veery
4. Swainson's Thrush"
232,3,0-0,52,Expert,3548,/static/images/Expert/112_American Dipper/American Dipper2.jpg,297842,44,48,single-stim,A1467A93JOZ1CG:32XVDSJFP0UPWNWG90ISQRTS0IH2MZ,"1. Black Phoebe
2. Gray Jay
3. American Dipper
4. Gray Catbird"
233,1,0-0,52,Expert,4240,/static/images/Expert/107_Black-and-white Warbler/Black-and-white Warbler2.jpg,302588,45,49,single-stim,A1467A93JOZ1CG:32XVDSJFP0UPWNWG90ISQRTS0IH2MZ,"1. Black-and-white Warbler
2. Brown-headed Nuthatch
3. Red-breasted Nuthatch
4. White-breasted Nuthatch"
234,4,0-0,49,Advanced,3214,/static/images/Advanced/07_Acorn Woodpecker/B_Woodpeckers - Acorn Woodpecker - 005 - s004 - m - crop - col.jpg,306111,46,50,single-stim,A1467A93JOZ1CG:32XVDSJFP0UPWNWG90ISQRTS0IH2MZ,"1. Red-headed Woodpecker
2. Yellow-bellied Sapsucker
3. Gila Woodpecker
4. Acorn Woodpecker"
235,2,0-0,50,Expert,2992,/static/images/Expert/08_Chipping Sparrow/B_New World Sparrows - Chipping Sparrow - 005 - s000 - crop - col.jpg,309226,47,51,single-stim,A1467A93JOZ1CG:32XVDSJFP0UPWNWG90ISQRTS0IH2MZ,"1. American Tree Sparrow
2. Chipping Sparrow
3. Clay-colored Sparrow
4. Field Sparrow"
236,4,0-0,50,Expert,3272,/static/images/Expert/04_Nashville Warbler/B_Wood-warblers - Nashville Warbler - 004 - s001 - crop - col.jpg,312678,48,52,single-stim,A1467A93JOZ1CG:32XVDSJFP0UPWNWG90ISQRTS0IH2MZ,"1. Orange-crowned Warbler
2. Palm Warbler
3. Tennessee Warbler
4. Nashville Warbler"
237,3,0-0,51,Intermediate,2535,/static/images/Intermediate/12_Belted Kingfisher/B_Kingfisher - Belted Kingfisher - 012 - s010 - crop - col.jpg,315707,49,53,single-stim,A1467A93JOZ1CG:32XVDSJFP0UPWNWG90ISQRTS0IH2MZ,"1. Great Crested Flycatcher
2. Phainopepla
3. Belted Kingfisher
4. Bridled Titmouse"
238,3,0-0,51,Intermediate,4209,/static/images/Intermediate/09_Great Kiskadee/B_Flycatchers - Kiskadee Flycatcher (Greater Kiskadee) - 009 - s009 - crop - col.jpg,320054,50,54,single-stim,A1467A93JOZ1CG:32XVDSJFP0UPWNWG90ISQRTS0IH2MZ,"1. Yellow-throated Vireo
2. Brewer's Sparrow
3. Great Kiskadee
4. Say's Phoebe"
239,4,0-0,49,Expert,3247,/static/images/Expert/118_Spotted Towhee/Spotted Towhee2.jpg,323740,51,55,single-stim,A1467A93JOZ1CG:32XVDSJFP0UPWNWG90ISQRTS0IH2MZ,"1. American Redstart
2. Eastern Towhee
3. Baltimore Oriole
4. Spotted Towhee"
240,2,0-0,51,Intermediate,5513,/static/images/Intermediate/14_Vermilion Flycatcher/B_Tyrant Flycatcher - Vermilion Flycatcher - 001 - s000 - crop - col.jpg,329693,52,56,single-stim,A1467A93JOZ1CG:32XVDSJFP0UPWNWG90ISQRTS0IH2MZ,"1. Scarlet Tanager
2. Vermilion Flycatcher
3. Say's Phoebe
4. Great Kiskadee"
241,2,0-0,50,Intermediate,3596,/static/images/Intermediate/15_Blue Grosbeak/B_Cardinals and Grosbeaks - Blue Grosbeak - 002 - s001 - crop - col.jpg,333825,53,57,single-stim,A1467A93JOZ1CG:32XVDSJFP0UPWNWG90ISQRTS0IH2MZ,"1. Blue Jay
2. Blue Grosbeak
3. Cerulean Warbler
4. Indigo Bunting"
242,1,0-0,50,Advanced,2600,/static/images/Advanced/08_Indigo Bunting/B_Cardinals and Grosbeaks - Indigo Bunting - 004 - s000 - crop - col.jpg,336692,54,58,single-stim,A1467A93JOZ1CG:32XVDSJFP0UPWNWG90ISQRTS0IH2MZ,"1. Indigo Bunting
2. Lazuli Bunting
3. Blue Grosbeak
4. Eastern Bluebird"
243,3,0-0,50,Expert,4127,/static/images/Expert/108_Mountain Bluebird/Mountain Bluebird2.jpg,341351,55,59,single-stim,A1467A93JOZ1CG:32XVDSJFP0UPWNWG90ISQRTS0IH2MZ,"1. Eastern Bluebird
2. Western Bluebird
3. Mountain Bluebird
4. Blue Grosbeak"
244,4,0-0,51,Advanced,2859,/static/images/Advanced/19_Brown Creeper/B_Creepers - Brown Creeper - 004 - s000 - crop - col.jpg,344632,56,60,single-stim,A1467A93JOZ1CG:32XVDSJFP0UPWNWG90ISQRTS0IH2MZ,"1. Canyon Wren
2. Bewick's Wren
3. Cactus Wren
4. Brown Creeper"
245,1,0-0,52,Expert,3047,/static/images/Expert/101_Common Redpoll/Common Redpoll2.jpg,348107,57,61,single-stim,A1467A93JOZ1CG:32XVDSJFP0UPWNWG90ISQRTS0IH2MZ,"1. Common Redpoll
2. Hoary Redpoll
3. Cassin's Finch
4. Pine Siskin"
246,4,0-0,50,Expert,3073,/static/images/Expert/05_Fox Sparrow/B_New World Sparrows - Fox Sparrow - 005 - s009 - crop - col.jpg,351378,58,62,single-stim,A1467A93JOZ1CG:32XVDSJFP0UPWNWG90ISQRTS0IH2MZ,"1. Henslow's Sparrow
2. Song Sparrow
3. Sage Sparrow
4. Fox Sparrow"
247,2,0-0,51,Advanced,3736,/static/images/Advanced/18_Bobolink/B_Blackbirds - Bobolink - 002 - s000 - crop - col.jpg,355344,59,63,single-stim,A1467A93JOZ1CG:32XVDSJFP0UPWNWG90ISQRTS0IH2MZ,"1. Eastern Meadowlark
2. Bobolink
3. Yellow-headed Blackbird
4. Lark Bunting"
248,1,0-0,51,Expert,4191,/static/images/Expert/18_Eastern Towhee/B_New World Sparrows - Eastern Towhee - 001 - s002 - m - a - fall - crop - col.jpg,359916,60,64,single-stim,A1467A93JOZ1CG:32XVDSJFP0UPWNWG90ISQRTS0IH2MZ,"1. Eastern Towhee
2. Lark Sparrow
3. Spotted Towhee
4. Black-headed Grosbeak"
249,3,0-0,50,Expert,3286,/static/images/Expert/11_Blue-headed Vireo/B_Vireos - Blue-headed Vireo - 001 - s001 - crop - col.jpg,363749,61,65,single-stim,A1467A93JOZ1CG:32XVDSJFP0UPWNWG90ISQRTS0IH2MZ,"1. Hutton's Vireo
2. Warbling Vireo
3. Blue-headed Vireo
4. Cassin's Vireo"
250,3,0-0,50,Expert,4152,/static/images/Expert/120_Hermit Warbler/Hermit Warbler2.jpg,368473,62,66,single-stim,A1467A93JOZ1CG:32XVDSJFP0UPWNWG90ISQRTS0IH2MZ,"1. Townsend's Warbler
2. Golden-cheeked Warbler
3. Hermit Warbler
4. Black-throated Green Warbler"
251,3,0-0,51,Expert,3693,/static/images/Expert/109_White-breasted Nuthatch/White-breasted Nuthatch2.jpg,372596,63,67,single-stim,A1467A93JOZ1CG:32XVDSJFP0UPWNWG90ISQRTS0IH2MZ,"1. Pygmy Nuthatch
2. Tufted Titmouse
3. White-breasted Nuthatch
4. Carolina Chickadee"
252,1,0-0,51,Expert,4471,/static/images/Expert/13_Golden-fronted Woodpecker/B_Woodpecker - Golden-fronted Woodpecker - 004 - s000 - crop - col.jpg,377376,64,68,single-stim,A1467A93JOZ1CG:32XVDSJFP0UPWNWG90ISQRTS0IH2MZ,"1. Golden-fronted Woodpecker
2. Red-bellied Woodpecker
3. Gila Woodpecker
4. Red-headed Woodpecker"
253,4,0-0,51,Expert,3686,/static/images/Expert/10_Warbling Vireo/B_Vieros - Warbling Vireo - 004 - s001 - crop - col.jpg,381516,65,69,single-stim,A1467A93JOZ1CG:32XVDSJFP0UPWNWG90ISQRTS0IH2MZ,"1. Bell's Vireo
2. Philadelphia Vireo
3. Hutton's Vireo
4. Warbling Vireo"
254,3,0-0,49,Expert,2974,/static/images/Expert/01_Townsend's Warbler/B_Wood-warblers - Townsends's Warbler - 002 - s000 - crop - col.jpg,384650,66,70,single-stim,A1467A93JOZ1CG:32XVDSJFP0UPWNWG90ISQRTS0IH2MZ,"1. Magnolia Warbler
2. Blackburnian Warbler
3. Townsend's Warbler
4. Black-throated Green Warbler"
255,2,0-0,52,Expert,5313,/static/images/Expert/17_Yellow-bellied Sapsucker/B_Woodpeckers - Yellow-bellied Sapsucker - 003 - s000 - crop - col.jpg,390168,67,71,single-stim,A1467A93JOZ1CG:32XVDSJFP0UPWNWG90ISQRTS0IH2MZ,"1. Golden-fronted Woodpecker
2. Yellow-bellied Sapsucker
3. Ladder-backed Woodpecker
4. Red-Naped Sapsucker"
256,3,0-0,49,Expert,2355,/static/images/Expert/110_Pygmy Nuthatch/Pygmy Nuthatch2.jpg,392753,68,72,single-stim,A1467A93JOZ1CG:32XVDSJFP0UPWNWG90ISQRTS0IH2MZ,"1. Bushtit
2. Brown-headed Nuthatch
3. Pygmy Nuthatch
4. White-breasted Nuthatch"
257,1,0-0,51,Expert,2287,/static/images/Expert/116_Hermit Thrush/Hermit Thrush2.jpg,395561,69,73,single-stim,A1467A93JOZ1CG:32XVDSJFP0UPWNWG90ISQRTS0IH2MZ,"1. Hermit Thrush
2. Wood Thrush
3. Veery
4. Swainson's Thrush"
258,1,0-0,52,Advanced,2556,/static/images/Advanced/02_Prothonotary Warbler/B_Wood-warblers - Prothonotary Warbler - 002 - s000 - crop - col.jpg,398321,70,74,single-stim,A1467A93JOZ1CG:32XVDSJFP0UPWNWG90ISQRTS0IH2MZ,"1. Prothonotary Warbler
2. Wilson's Warbler
3. Prairie Warbler
4. Yellow Warbler"
259,1,0-0,51,Expert,4329,/static/images/Expert/14_Wilson's Warbler/B_Wood-warblers - Wilson's Warbler - 002 - s001 - crop - col.jpg,403116,71,75,single-stim,A1467A93JOZ1CG:32XVDSJFP0UPWNWG90ISQRTS0IH2MZ,"1. Wilson's Warbler
2. Yellow Warbler
3. Common Yellowthroat
4. Hooded Warbler"
260,4,0-0,52,Expert,3720,/static/images/Expert/115_Vesper Sparrow/Vesper Sparrow2.jpg,407046,72,76,single-stim,A1467A93JOZ1CG:32XVDSJFP0UPWNWG90ISQRTS0IH2MZ,"1. Swamp Sparrow
2. Lincoln's Sparrow
3. Song Sparrow
4. Vesper Sparrow"
261,1,0-0,51,Advanced,2723,/static/images/Advanced/11_Say's Phoebe/B_Tyrant Flycatchers - Say's Phoebe - 004 - s000 - crop - col.jpg,410123,73,77,single-stim,A1467A93JOZ1CG:32XVDSJFP0UPWNWG90ISQRTS0IH2MZ,"1. Say's Phoebe
2. Black Phoebe
3. Olive-sided Flycatcher
4. Eastern Phoebe"
262,4,0-0,50,Intermediate,3893,/static/images/Intermediate/06_Phainopepla/B_Silky-Flycatchers - Phainopepla - 003 - s000 - m - a -crop - col.jpg,414343,74,78,single-stim,A1467A93JOZ1CG:32XVDSJFP0UPWNWG90ISQRTS0IH2MZ,"1. Northern Cardinal
2. Cedar Waxwing
3. Pyrrhuloxia
4. Phainopepla"
263,1,0-0,50,Expert,4212,/static/images/Expert/06_White-crowned Sparrow/B_Sparrows - White-crowned Sparrow - 003 - s000 - crop - col.jpg,418695,75,79,single-stim,A1467A93JOZ1CG:32XVDSJFP0UPWNWG90ISQRTS0IH2MZ,"1. White-crowned Sparrow
2. Swamp Sparrow
3. White-throated Sparrow
4. Song Sparrow"
264,4,0-0,50,Advanced,2937,"/static/images/Advanced/13_Common Raven/B_Jays, Magpies, and Crows - Common Raven - 006 - s000 - m - a -crop - col.jpg",421858,76,80,single-stim,A1467A93JOZ1CG:32XVDSJFP0UPWNWG90ISQRTS0IH2MZ,"1. Fish Crow
2. American Crow
3. Gray Jay
4. Common Raven"
265,4,0-0,52,Expert,3282,/static/images/Expert/09_Purple Martin/B_Swallows - Purple Martin - 006 - s001 - crop - col.jpg,425514,77,81,single-stim,A1467A93JOZ1CG:32XVDSJFP0UPWNWG90ISQRTS0IH2MZ,"1. Barn Swallow
2. Common Grackle
3. Tree Swallow
4. Purple Martin"
266,3,0-0,52,Intermediate,3948,/static/images/Intermediate/13_Pyrrhuloxia/B_Cardinals and Grosbeaks - Pyrrhuloxia - 012 - s010 - m - crop - col.jpg,429567,78,82,single-stim,A1467A93JOZ1CG:32XVDSJFP0UPWNWG90ISQRTS0IH2MZ,"1. Scarlet Tanager
2. Northern Cardinal
3. Pyrrhuloxia
4. Bobolink"
267,1,0-0,49,Expert,3367,/static/images/Expert/20_Northern Rough-winged Swallow/B_Swallows - Northern Rough-winged Swallow - 003 - s001 - crop - col.jpg,433414,79,83,single-stim,A1467A93JOZ1CG:32XVDSJFP0UPWNWG90ISQRTS0IH2MZ,"1. Northern Rough-winged Swallow
2. Barn Swallow
3. Tree Swallow
4. Bank Swallow"
268,2,0-0,50,Expert,3778,/static/images/Expert/104_Evening Grosbeak/Evening Grosbeak2.jpg,437604,80,84,single-stim,A1467A93JOZ1CG:32XVDSJFP0UPWNWG90ISQRTS0IH2MZ,"1. American Goldfinch
2. Evening Grosbeak
3. Purple Finch
4. Pine Grosbeak"
269,4,0-0,50,Expert,3614,/static/images/Expert/111_Brown-headed Nuthatch/Brown-headed Nuthatch2.jpg,441376,81,85,single-stim,A1467A93JOZ1CG:32XVDSJFP0UPWNWG90ISQRTS0IH2MZ,"1. Brown Creeper
2. Pygmy Nuthatch
3. Red-breasted Nuthatch
4. Brown-headed Nuthatch"
270,4,0-0,52,Expert,4690,/static/images/Expert/113_White-winged Dove/White-winged Dove2.jpg,446175,82,86,single-stim,A1467A93JOZ1CG:32XVDSJFP0UPWNWG90ISQRTS0IH2MZ,"1. White-tipped Dove
2. Inca Dove
3. Common Ground Dove
4. White-winged Dove"
271,2,0-0,49,Expert,2074,/static/images/Expert/106_Townsend's Solitaire/Townsend's Solitaire2.jpg,448640,83,87,single-stim,A1467A93JOZ1CG:32XVDSJFP0UPWNWG90ISQRTS0IH2MZ,"1. Gray-cheeked Thrush
2. Townsend's Solitaire
3. Northern Shrike
4. Mountain bluebird"
272,2,0-0,50,Beginner,3418,/static/images/Beginner/02_Carolina Wren/B_Wrens - Carolina Wren - 005 - s000 - crop - col.jpg,452426,84,88,single-stim,A1467A93JOZ1CG:32XVDSJFP0UPWNWG90ISQRTS0IH2MZ,"1. Ovenbird
2. Carolina Wren
3. Cactus Wren
4. Tufted Titmouse"
273,2,0-0,49,Expert,2771,/static/images/Expert/03_Ovenbird/B_Wood-warblers - Ovenbird - 013 - s010 - crop - col.jpg,455690,85,89,single-stim,A1467A93JOZ1CG:32XVDSJFP0UPWNWG90ISQRTS0IH2MZ,"1. Lark Sparrow
2. Ovenbird
3. Louisiana Waterthrush
4. Northern Waterthrush"
274,3,0-0,50,Expert,3673,/static/images/Expert/102_Verdin/Verdin2.jpg,459568,86,90,single-stim,A1467A93JOZ1CG:32XVDSJFP0UPWNWG90ISQRTS0IH2MZ,"1. Bushtit
2. Lucy's Warbler
3. Verdin
4. Blue-gray Gnatcatchers"
275,4,0-0,51,Expert,3259,/static/images/Expert/119_Louisiana Waterthrush/Louisiana Waterthrush2.jpg,463372,87,91,single-stim,A1467A93JOZ1CG:32XVDSJFP0UPWNWG90ISQRTS0IH2MZ,"1. Northern Waterthrush
2. Ovenbird
3. Song Sparrow
4. Louisiana Waterthrush"
276,3,0-0,52,Expert,3648,/static/images/Expert/114_Lawrence's Goldfinch/Lawrence's Goldfinch2.jpg,467560,88,92,single-stim,A1467A93JOZ1CG:32XVDSJFP0UPWNWG90ISQRTS0IH2MZ,"1. Evening Grosbeak
2. American Goldfinch
3. Lawrence's Goldfinch
4. Lesser Goldfinch"
277,1,0-0,52,Expert,3375,/static/images/Expert/103_Canyon Wren/Canyon Wren2.jpg,471193,89,93,single-stim,A1467A93JOZ1CG:32XVDSJFP0UPWNWG90ISQRTS0IH2MZ,"1. Canyon Wren
2. Winter Wren
3. Sedge Wren
4. Rock Wren"
278,2,0-0,49,Expert,4203,/static/images/Expert/105_Varied Thrush/Varied Thrush2.jpg,475828,90,94,single-stim,A1467A93JOZ1CG:32XVDSJFP0UPWNWG90ISQRTS0IH2MZ,"1. Veery
2. Varied Thrush
3. Swainson's Thrush
4. American Robin"
279,2,0-0,51,Expert,4200,/static/images/Expert/121_Ruby-crowned Kinglet/Ruby-crowned Kinglet2.jpg,480477,91,95,single-stim,A1467A93JOZ1CG:32XVDSJFP0UPWNWG90ISQRTS0IH2MZ,"1. Hutton's Vireo
2. Ruby-crowned Kinglet
3. Golden-crowned Kinglet
4. Cassin's Vireo"
280,2,0-0,50,Expert,3327,/static/images/Expert/19_Western Wood-Pewee/B_Tyrant Flycatchers - Western Wood-Pewee - 004 - s001 - crop - col.jpg,483951,92,96,single-stim,A1467A93JOZ1CG:32XVDSJFP0UPWNWG90ISQRTS0IH2MZ,"1. Eastern Phoebe
2. Western Wood-Pewee
3. Greater Pewee
4. Olive-sided Flycatcher"
281,1,0-0,52,Expert,3395,/static/images/Expert/117_Winter Wren/Winter Wren2.jpg,487693,93,97,single-stim,A1467A93JOZ1CG:32XVDSJFP0UPWNWG90ISQRTS0IH2MZ,"1. Winter Wren
2. Marsh Wren
3. House Wren
4. Bewick's Wren"
282,1,0-0,49,Practice,45402,/static/images/Practice/06_Turkey Vulture/B_Hawks - Turkey Vulture - 013 - s083 - crop - col.jpg,204499,0,4,single-stim,A15GRSTO3CWT8O:3RANCT1ZVGE2X81L1V2PIUDQ7AEUB2,"1. Turkey Vulture
2. Ferruginous Hawk
3. Parasitic Jaeger
4. Northern Harrier"
283,3,0-0,51,Practice,5819,/static/images/Practice/08_Osprey/B_Hawks - Osprey - 005 - s000 - crop - col.jpg,210907,1,5,single-stim,A15GRSTO3CWT8O:3RANCT1ZVGE2X81L1V2PIUDQ7AEUB2,"1. Crested Caracara
2. Golden Eagle
3. Osprey
4. Ruffed Grouse"
284,4,0-0,52,Practice,3229,/static/images/Practice/04_Canada Goose/B_Ducks - Canada Goose - 004 - s000 - crop - col.jpg,214609,2,6,single-stim,A15GRSTO3CWT8O:3RANCT1ZVGE2X81L1V2PIUDQ7AEUB2,"1. Common Loon
2. Brant
3. Sanderling
4. Canada Goose"
285,4,0-0,52,Practice,2485,/static/images/Practice/03_Bald Eagle/B_Hawks - Bald Eagle - 012 - s074 - m - a - crop - col.jpg,217365,3,7,single-stim,A15GRSTO3CWT8O:3RANCT1ZVGE2X81L1V2PIUDQ7AEUB2,"1. Broad-winged Hawk
2. Golden Eagle
3. Great Egret
4. Bald Eagle"
286,1,0-0,49,Practice,3924,/static/images/Practice/02_Greater Roadrunner/B_Cuckoos - Greater Roadrunner - 002 - s010 - crop - col.jpg,221779,4,8,single-stim,A15GRSTO3CWT8O:3RANCT1ZVGE2X81L1V2PIUDQ7AEUB2,"1. Greater Roadrunner
2. Northern Bobwhite
3. Black-billed Cuckoo
4. Ruddy Turnstone"
287,1,0-0,49,Practice,3763,/static/images/Practice/09_Killdeer/B_Shorebirds - Killdeer - 012 - s086 - crop - col.jpg,225798,5,9,single-stim,A15GRSTO3CWT8O:3RANCT1ZVGE2X81L1V2PIUDQ7AEUB2,"1. Killdeer
2. Herring Gull
3. Willet
4. Piping Plover"
288,1,0-0,51,Practice,6135,/static/images/Practice/01_Barn Owl/B_Barn-owls - Common Barn-Owl - 094 - s000 - crop - col.jpg,232087,6,10,single-stim,A15GRSTO3CWT8O:3RANCT1ZVGE2X81L1V2PIUDQ7AEUB2,"1. Barn Owl
2. Common Poorwill
3. Barred Owl
4. American Bittern"
289,3,0-0,51,Practice,3796,/static/images/Practice/10_Great Blue Heron/B_Herons - Great Blue Heron - 013 - s085 - crop - col.jpg,236102,7,11,single-stim,A15GRSTO3CWT8O:3RANCT1ZVGE2X81L1V2PIUDQ7AEUB2,"1. American Avocet
2. Anhinga
3. Great Blue Heron
4. Cattle Egret"
290,1,0-0,49,Practice,4398,/static/images/Practice/05_Wood Duck/B_Ducks - Wood Duck - 004 - s000 - crop - col.jpg,240941,8,12,single-stim,A15GRSTO3CWT8O:3RANCT1ZVGE2X81L1V2PIUDQ7AEUB2,"1. Wood Duck
2. Harlequin Duck
3. Bridled Tern
4. Pied-billed Grebe"
291,2,0-0,50,Intermediate,4104,/static/images/Intermediate/04_Western Tanager/B_Cardinals and Grosbeaks - Western Tanager - 001 - s000 - crop - col.jpg,245321,9,13,single-stim,A15GRSTO3CWT8O:3RANCT1ZVGE2X81L1V2PIUDQ7AEUB2,"1. Varied Bunting
2. Western Tanager
3. Hepatic Tanager
4. Painted Bunting"
292,3,0-0,51,Novice,2604,/static/images/Novice/02_Northern Cardinal/B_Cardinals and Grosbeaks - Northern Cardinal - 002 - s000 - crop - col.jpg,248315,10,14,single-stim,A15GRSTO3CWT8O:3RANCT1ZVGE2X81L1V2PIUDQ7AEUB2,"1. Painted Bunting
2. Scarlet Tanager
3. Northern Cardinal
4. Mountain Chickadee"
293,2,0-0,50,Novice,2457,/static/images/Novice/06_American Robin/B_Thrushes - American Robin - 002 - s000 - crop - col.jpg,250892,11,15,single-stim,A15GRSTO3CWT8O:3RANCT1ZVGE2X81L1V2PIUDQ7AEUB2,"1. Swainson's Thrush
2. American Robin
3. Lazuli Bunting
4. Song Sparrow"
294,3,0-0,51,Beginner,4948,/static/images/Beginner/08_American Tree Sparrow/B_New World Sparrows - American Tree Sparrow - 002 - s000 - crop - col.jpg,256273,12,16,single-stim,A15GRSTO3CWT8O:3RANCT1ZVGE2X81L1V2PIUDQ7AEUB2,"1. Spotted Towhee
2. Western Meadowlark
3. American Tree Sparrow
4. Western Scrub-Jay"
295,4,0-0,52,Novice,4483,/static/images/Novice/03_European Starling/B_Starlings - European Starling - 009 - s000 - crop - col.jpg,261070,13,17,single-stim,A15GRSTO3CWT8O:3RANCT1ZVGE2X81L1V2PIUDQ7AEUB2,"1. Pine Grosbeak
2. Lark Bunting
3. Common Raven
4. European Starling"
296,2,0-0,50,Novice,2365,/static/images/Novice/07_American Goldfinch/B_Finches - American Goldfinch  - 002 - s000 - crop - col.jpg,263667,14,18,single-stim,A15GRSTO3CWT8O:3RANCT1ZVGE2X81L1V2PIUDQ7AEUB2,"1. House Finch
2. American Goldfinch
3. Yellow Grosbeak
4. Summer Tanager"
297,2,0-0,50,Novice,2235,"/static/images/Novice/09_Blue Jay/B_Jays, Magpies, and Crows - Blue Jay - 004 - s000 - crop - col.jpg",266085,15,19,single-stim,A15GRSTO3CWT8O:3RANCT1ZVGE2X81L1V2PIUDQ7AEUB2,"1. Carolina Wren
2. Blue Jay
3. Clark's Nutcracker
4. Mountain Bluebird"
298,2,0-0,49,Novice,7642,/static/images/Novice/01_Northern Mockingbird/B_Mockingbirds and Thrashers - Northern Mockingbird - 009 - s000 - crop - col.jpg,273912,16,20,single-stim,A15GRSTO3CWT8O:3RANCT1ZVGE2X81L1V2PIUDQ7AEUB2,"1. Barn Swallow
2. Northern Mockingbird
3. Brown Thrasher
4. Gray Catbird"
299,2,0-0,50,Novice,5261,/static/images/Novice/10_Rock Pigeon/B_Pigeons and Doves - Rock Pigeon (Rock dove) - 012 - crop - col.jpg,279738,17,21,single-stim,A15GRSTO3CWT8O:3RANCT1ZVGE2X81L1V2PIUDQ7AEUB2,"1. Mourning Dove
2. Rock Pigeon
3. Cape May Warbler
4. Least Flycatcher"
300,4,0-0,50,Intermediate,4245,"/static/images/Intermediate/11_Black-billed Magpie/B_Jays, Magpies, and Crows - Black-billed Magpie - 012 - s010 - crop - col.jpg",284381,18,22,single-stim,A15GRSTO3CWT8O:3RANCT1ZVGE2X81L1V2PIUDQ7AEUB2,"1. Lark Bunting
2. Brewer's Blackbird
3. American Crow
4. Black-billed Magpie"
301,1,0-0,49,Beginner,3226,"/static/images/Beginner/04_Steller's Jay/B_Jays, Magpies, and Crows - Steller's Jay - 002 - s000 - crop - col.jpg",288068,19,23,single-stim,A15GRSTO3CWT8O:3RANCT1ZVGE2X81L1V2PIUDQ7AEUB2,"1. Steller's Jay
2. Hermit Warbler
3. Blue Jay
4. Blue Grosbeak"
302,3,0-0,50,Intermediate,4756,/static/images/Intermediate/01_Wood Thrush/B_Thrushes - Wood Thrush - 004 - s000 - crop - col.jpg,293428,20,24,single-stim,A15GRSTO3CWT8O:3RANCT1ZVGE2X81L1V2PIUDQ7AEUB2,"1. Spragues's Pipit
2. Varied Thrush
3. Wood Thrush
4. American Pipit"
303,3,0-0,51,Intermediate,3150,/static/images/Intermediate/03_Painted Bunting/B_Cardinals and Grosbeaks - Painted Bunting - 006 - s000 - crop - col.jpg,296968,21,25,single-stim,A15GRSTO3CWT8O:3RANCT1ZVGE2X81L1V2PIUDQ7AEUB2,"1. Rose-breasted Grosbeak
2. Hooded Oriole
3. Painted Bunting
4. Lazuli Bunting"
304,3,0-0,49,Beginner,3351,"/static/images/Beginner/10_Western Scrub Jay/B_Jays, Magpies, and Crows - Western Scrub-Jay - 006 - s001 - crop - col.jpg",300645,22,26,single-stim,A15GRSTO3CWT8O:3RANCT1ZVGE2X81L1V2PIUDQ7AEUB2,"1. Indigo Bunting
2. Great Kiskadee
3. Western Scrub Jay
4. Steller's Jay"
305,4,0-0,50,Beginner,5621,/static/images/Beginner/01_House Finch/B_Finches - House Finch - 006 - s000 - crop - col.jpg,306801,23,27,single-stim,A15GRSTO3CWT8O:3RANCT1ZVGE2X81L1V2PIUDQ7AEUB2,"1. Common Redpoll
2. Flame-colored Tanager
3. Crissal Thrasher
4. House Finch"
306,2,0-0,50,Novice,2022,/static/images/Novice/04_Baltimore Oriole/B_Blackbirds - Baltimore Oriole - 004 - s001 - crop - col.jpg,309255,24,28,single-stim,A15GRSTO3CWT8O:3RANCT1ZVGE2X81L1V2PIUDQ7AEUB2,"1. Eastern Meadowlark
2. Baltimore Oriole
3. Blackburnian Warbler
4. Black-capped Chickadee"
307,3,0-0,50,Beginner,5493,/static/images/Beginner/06_Brown-headed Cowbird/B_Blackbirds - Brown-Headed Cowbird - 008 - s000 - crop - col.jpg,315333,25,29,single-stim,A15GRSTO3CWT8O:3RANCT1ZVGE2X81L1V2PIUDQ7AEUB2,"1. Cape May Warbler
2. Song Sparrow
3. Brown-headed Cowbird
4. Baltimore Oriole"
308,3,0-0,50,Intermediate,5302,/static/images/Intermediate/05_Cactus Wren/B_Wrens - Cactus Wren - 004 - s005 - crop - col.jpg,320773,26,30,single-stim,A15GRSTO3CWT8O:3RANCT1ZVGE2X81L1V2PIUDQ7AEUB2,"1. Abert's Towhee
2. Carolina Wren
3. Cactus Wren
4. Fox Sparrow"
309,1,0-0,49,Intermediate,3861,"/static/images/Intermediate/07_Clark's Nutcracker/B_Jays, Magpies, and Crows - Clark's Nutcracker - 001 - s001 - crop - col.jpg",325073,27,31,single-stim,A15GRSTO3CWT8O:3RANCT1ZVGE2X81L1V2PIUDQ7AEUB2,"1. Clark's Nutcracker
2. Scott's Oriole
3. Bridled Titmouse
4. Pinyon Jay"
310,1,0-0,50,Advanced,4495,/static/images/Advanced/06_Bay-breasted Warbler/B_Wood-warblers - Bay-breasted Warbler - 004 - s000 - crop - col.jpg,330010,28,32,single-stim,A15GRSTO3CWT8O:3RANCT1ZVGE2X81L1V2PIUDQ7AEUB2,"1. Bay-breasted Warbler
2. Pine Warbler
3. Blackburnian Warbler
4. Cape May Warbler"
311,3,0-0,50,Advanced,3401,/static/images/Advanced/15_Summer Tanager/B_Cardinals - Summer Tanager - 002 - s001 - crop - col.jpg,333806,29,33,single-stim,A15GRSTO3CWT8O:3RANCT1ZVGE2X81L1V2PIUDQ7AEUB2,"1. Flame-colored Tanager
2. Scarlet Tanager
3. Summer Tanager
4. Hepatic Tanager"
312,4,0-0,52,Advanced,7072,/static/images/Advanced/01_Blackburnian Warbler/B_Wood-warblers - Blackburnian Warbler - 001 - s000 - crop - col.jpg,341384,30,34,single-stim,A15GRSTO3CWT8O:3RANCT1ZVGE2X81L1V2PIUDQ7AEUB2,"1. Magnolia Warbler
2. Palm Warbler
3. Bay-breasted Warbler
4. Blackburnian Warbler"
313,4,0-0,52,Beginner,4478,/static/images/Beginner/03_Northern Flicker/B_Woodpeckers - Northern Flicker - 002 - s000 - crop - col.jpg,346013,31,35,single-stim,A15GRSTO3CWT8O:3RANCT1ZVGE2X81L1V2PIUDQ7AEUB2,"1. Brown Thrasher
2. Yellow-bellied Sapsucker
3. House Sparrow
4. Northern Flicker"
314,2,0-0,52,Advanced,4620,/static/images/Advanced/12_Yellow-breasted Chat/B_Wood-warblers - Yellow-breasted Chat - 006 - s000 - crop - col.jpg,351182,32,36,single-stim,A15GRSTO3CWT8O:3RANCT1ZVGE2X81L1V2PIUDQ7AEUB2,"1. Mourning Warbler
2. Yellow-breasted Chat
3. Wilson's Warbler
4. Common Yellowthroat"
315,2,0-0,49,Beginner,3617,/static/images/Beginner/07_Bushtit/B_Bushtits - Bushtit - 006 - s000 - crop - col.jpg,355000,33,37,single-stim,A15GRSTO3CWT8O:3RANCT1ZVGE2X81L1V2PIUDQ7AEUB2,"1. Verdin
2. Bushtit
3. Painted Bunting
4. Swamp Sparrow"
316,1,0-0,51,Intermediate,2775,/static/images/Intermediate/02_American Redstart/B_Wood-Warblers - American Redstart - 004 - s001 - crop - col.jpg,357978,34,38,single-stim,A15GRSTO3CWT8O:3RANCT1ZVGE2X81L1V2PIUDQ7AEUB2,"1. American Redstart
2. Ovenbird
3. Altamira Oriole
4. Cape May Warbler"
317,2,0-0,50,Advanced,4728,/static/images/Advanced/16_Bridled Titmouse/B_Chickadees and Titmice - Bridled Titmouse - 003 - s000 - crop - col.jpg,363292,35,39,single-stim,A15GRSTO3CWT8O:3RANCT1ZVGE2X81L1V2PIUDQ7AEUB2,"1. Tufted Titmouse
2. Bridled Titmouse
3. Black-crested Titmouse
4. Mountain Chickadee"
318,2,0-0,49,Advanced,3977,/static/images/Advanced/09_Scott's Oriole/B_Blackbirds - Scott's Oriole - 002 - s000 - crop - col.jpg,367488,36,40,single-stim,A15GRSTO3CWT8O:3RANCT1ZVGE2X81L1V2PIUDQ7AEUB2,"1. Bullock's Oriole
2. Scott's Oriole
3. Audubon's Oriole
4. Orchard Oriole"
319,2,0-0,51,Intermediate,5209,/static/images/Intermediate/10_Pileated Woodpecker/B_Woodpeckers - Pileated Woodpecker - 006 - s009 - f - a - spring - crop - col.jpg,373080,37,41,single-stim,A15GRSTO3CWT8O:3RANCT1ZVGE2X81L1V2PIUDQ7AEUB2,"1. Black-billed Magpie
2. Pileated Woodpecker
3. Downy Woodpecker
4. Townsend's Solitaire"
320,2,0-0,50,Intermediate,5087,/static/images/Intermediate/08_Cerulean Warbler/B_Wood-Warblers - Cerulean Warbler - 006 - s000 - crop - col.jpg,378718,38,42,single-stim,A15GRSTO3CWT8O:3RANCT1ZVGE2X81L1V2PIUDQ7AEUB2,"1. Collared Whitestart
2. Cerulean Warbler
3. Tropical Parula
4. Black throated Blue Warbler"
321,1,0-0,49,Beginner,1788,/static/images/Beginner/09_Red-winged Blackbird/B_Blackbird - Red-Winged Blackbird - 008 - s002 - m - a - spring - crop - col.jpg,381030,39,43,single-stim,A15GRSTO3CWT8O:3RANCT1ZVGE2X81L1V2PIUDQ7AEUB2,"1. Red-winged Blackbird
2. Scott's Oriole
3. American Redstart
4. Common Grackle"
322,3,0-0,51,Novice,3746,/static/images/Novice/05_Mourning Dove/B_Pigeons and Doves - Mourning Dove - 006 - s000 - crop - col.jpg,385097,40,44,single-stim,A15GRSTO3CWT8O:3RANCT1ZVGE2X81L1V2PIUDQ7AEUB2,"1. Lark Sparrow
2. Rock Pigeon
3. Mourning Dove
4. Loggerhead Shrike"
323,4,0-0,50,Advanced,3665,/static/images/Advanced/05_Bullock's Oriole/B_Blackbirds - Bullock's Oriole - 007 - s000 - crop - col.jpg,389267,41,45,single-stim,A15GRSTO3CWT8O:3RANCT1ZVGE2X81L1V2PIUDQ7AEUB2,"1. Altamira Oriole
2. Audubon's Oriole
3. Baltimore Oriole
4. Bullock's Oriole"
324,3,0-0,51,Beginner,4489,/static/images/Beginner/05_Red-bellied Woodpecker/B_Woodpeckers - Red-Bellied Woodpecker - 006 - s000 - crop - col.jpg,394300,42,46,single-stim,A15GRSTO3CWT8O:3RANCT1ZVGE2X81L1V2PIUDQ7AEUB2,"1. Northern Mockingbird
2. Pileated Woodpecker
3. Red-bellied Woodpecker
4. Vermillion Flycatcher"
325,3,0-0,51,Expert,2979,/static/images/Expert/07_Veery/B_Thrushes - Veery - 004 - s001 - crop - col.jpg,397855,43,47,single-stim,A15GRSTO3CWT8O:3RANCT1ZVGE2X81L1V2PIUDQ7AEUB2,"1. Wood Thrush
2. Hermit Thrush
3. Veery
4. Swainson's Thrush"
326,3,0-0,49,Expert,5882,/static/images/Expert/112_American Dipper/American Dipper2.jpg,403968,44,48,single-stim,A15GRSTO3CWT8O:3RANCT1ZVGE2X81L1V2PIUDQ7AEUB2,"1. Black Phoebe
2. Gray Jay
3. American Dipper
4. Gray Catbird"
327,1,0-0,52,Expert,6864,/static/images/Expert/107_Black-and-white Warbler/Black-and-white Warbler2.jpg,411125,45,49,single-stim,A15GRSTO3CWT8O:3RANCT1ZVGE2X81L1V2PIUDQ7AEUB2,"1. Black-and-white Warbler
2. Brown-headed Nuthatch
3. Red-breasted Nuthatch
4. White-breasted Nuthatch"
328,4,0-0,51,Advanced,4193,/static/images/Advanced/07_Acorn Woodpecker/B_Woodpeckers - Acorn Woodpecker - 005 - s004 - m - crop - col.jpg,415486,46,50,single-stim,A15GRSTO3CWT8O:3RANCT1ZVGE2X81L1V2PIUDQ7AEUB2,"1. Red-headed Woodpecker
2. Yellow-bellied Sapsucker
3. Gila Woodpecker
4. Acorn Woodpecker"
329,2,0-0,51,Expert,4045,/static/images/Expert/08_Chipping Sparrow/B_New World Sparrows - Chipping Sparrow - 005 - s000 - crop - col.jpg,419960,47,51,single-stim,A15GRSTO3CWT8O:3RANCT1ZVGE2X81L1V2PIUDQ7AEUB2,"1. American Tree Sparrow
2. Chipping Sparrow
3. Clay-colored Sparrow
4. Field Sparrow"
330,4,0-0,51,Expert,4078,/static/images/Expert/04_Nashville Warbler/B_Wood-warblers - Nashville Warbler - 004 - s001 - crop - col.jpg,424549,48,52,single-stim,A15GRSTO3CWT8O:3RANCT1ZVGE2X81L1V2PIUDQ7AEUB2,"1. Orange-crowned Warbler
2. Palm Warbler
3. Tennessee Warbler
4. Nashville Warbler"
331,3,0-0,49,Intermediate,4097,/static/images/Intermediate/12_Belted Kingfisher/B_Kingfisher - Belted Kingfisher - 012 - s010 - crop - col.jpg,428919,49,53,single-stim,A15GRSTO3CWT8O:3RANCT1ZVGE2X81L1V2PIUDQ7AEUB2,"1. Great Crested Flycatcher
2. Phainopepla
3. Belted Kingfisher
4. Bridled Titmouse"
332,3,0-0,50,Intermediate,4858,/static/images/Intermediate/09_Great Kiskadee/B_Flycatchers - Kiskadee Flycatcher (Greater Kiskadee) - 009 - s009 - crop - col.jpg,434158,50,54,single-stim,A15GRSTO3CWT8O:3RANCT1ZVGE2X81L1V2PIUDQ7AEUB2,"1. Yellow-throated Vireo
2. Brewer's Sparrow
3. Great Kiskadee
4. Say's Phoebe"
333,4,0-0,49,Expert,4645,/static/images/Expert/118_Spotted Towhee/Spotted Towhee2.jpg,439375,51,55,single-stim,A15GRSTO3CWT8O:3RANCT1ZVGE2X81L1V2PIUDQ7AEUB2,"1. American Redstart
2. Eastern Towhee
3. Baltimore Oriole
4. Spotted Towhee"
334,2,0-0,50,Intermediate,4800,/static/images/Intermediate/14_Vermilion Flycatcher/B_Tyrant Flycatcher - Vermilion Flycatcher - 001 - s000 - crop - col.jpg,444328,52,56,single-stim,A15GRSTO3CWT8O:3RANCT1ZVGE2X81L1V2PIUDQ7AEUB2,"1. Scarlet Tanager
2. Vermilion Flycatcher
3. Say's Phoebe
4. Great Kiskadee"
335,2,0-0,50,Intermediate,4036,/static/images/Intermediate/15_Blue Grosbeak/B_Cardinals and Grosbeaks - Blue Grosbeak - 002 - s001 - crop - col.jpg,448812,53,57,single-stim,A15GRSTO3CWT8O:3RANCT1ZVGE2X81L1V2PIUDQ7AEUB2,"1. Blue Jay
2. Blue Grosbeak
3. Cerulean Warbler
4. Indigo Bunting"
336,1,0-0,50,Advanced,4444,/static/images/Advanced/08_Indigo Bunting/B_Cardinals and Grosbeaks - Indigo Bunting - 004 - s000 - crop - col.jpg,453438,54,58,single-stim,A15GRSTO3CWT8O:3RANCT1ZVGE2X81L1V2PIUDQ7AEUB2,"1. Indigo Bunting
2. Lazuli Bunting
3. Blue Grosbeak
4. Eastern Bluebird"
337,3,0-0,50,Expert,6419,/static/images/Expert/108_Mountain Bluebird/Mountain Bluebird2.jpg,460265,55,59,single-stim,A15GRSTO3CWT8O:3RANCT1ZVGE2X81L1V2PIUDQ7AEUB2,"1. Eastern Bluebird
2. Western Bluebird
3. Mountain Bluebird
4. Blue Grosbeak"
338,4,0-0,50,Advanced,3931,/static/images/Advanced/19_Brown Creeper/B_Creepers - Brown Creeper - 004 - s000 - crop - col.jpg,464781,56,60,single-stim,A15GRSTO3CWT8O:3RANCT1ZVGE2X81L1V2PIUDQ7AEUB2,"1. Canyon Wren
2. Bewick's Wren
3. Cactus Wren
4. Brown Creeper"
339,1,0-0,51,Expert,4929,/static/images/Expert/101_Common Redpoll/Common Redpoll2.jpg,470038,57,61,single-stim,A15GRSTO3CWT8O:3RANCT1ZVGE2X81L1V2PIUDQ7AEUB2,"1. Common Redpoll
2. Hoary Redpoll
3. Cassin's Finch
4. Pine Siskin"
340,4,0-0,52,Expert,4151,/static/images/Expert/05_Fox Sparrow/B_New World Sparrows - Fox Sparrow - 005 - s009 - crop - col.jpg,474627,58,62,single-stim,A15GRSTO3CWT8O:3RANCT1ZVGE2X81L1V2PIUDQ7AEUB2,"1. Henslow's Sparrow
2. Song Sparrow
3. Sage Sparrow
4. Fox Sparrow"
341,2,0-0,50,Advanced,6927,/static/images/Advanced/18_Bobolink/B_Blackbirds - Bobolink - 002 - s000 - crop - col.jpg,481706,59,63,single-stim,A15GRSTO3CWT8O:3RANCT1ZVGE2X81L1V2PIUDQ7AEUB2,"1. Eastern Meadowlark
2. Bobolink
3. Yellow-headed Blackbird
4. Lark Bunting"
342,1,0-0,52,Expert,4877,/static/images/Expert/18_Eastern Towhee/B_New World Sparrows - Eastern Towhee - 001 - s002 - m - a - fall - crop - col.jpg,487143,60,64,single-stim,A15GRSTO3CWT8O:3RANCT1ZVGE2X81L1V2PIUDQ7AEUB2,"1. Eastern Towhee
2. Lark Sparrow
3. Spotted Towhee
4. Black-headed Grosbeak"
343,3,0-0,49,Expert,4412,/static/images/Expert/11_Blue-headed Vireo/B_Vireos - Blue-headed Vireo - 001 - s001 - crop - col.jpg,492128,61,65,single-stim,A15GRSTO3CWT8O:3RANCT1ZVGE2X81L1V2PIUDQ7AEUB2,"1. Hutton's Vireo
2. Warbling Vireo
3. Blue-headed Vireo
4. Cassin's Vireo"
344,3,0-0,50,Expert,5035,/static/images/Expert/120_Hermit Warbler/Hermit Warbler2.jpg,497314,62,66,single-stim,A15GRSTO3CWT8O:3RANCT1ZVGE2X81L1V2PIUDQ7AEUB2,"1. Townsend's Warbler
2. Golden-cheeked Warbler
3. Hermit Warbler
4. Black-throated Green Warbler"
345,3,0-0,49,Expert,2527,/static/images/Expert/109_White-breasted Nuthatch/White-breasted Nuthatch2.jpg,500441,63,67,single-stim,A15GRSTO3CWT8O:3RANCT1ZVGE2X81L1V2PIUDQ7AEUB2,"1. Pygmy Nuthatch
2. Tufted Titmouse
3. White-breasted Nuthatch
4. Carolina Chickadee"
346,1,0-0,50,Expert,6293,/static/images/Expert/13_Golden-fronted Woodpecker/B_Woodpecker - Golden-fronted Woodpecker - 004 - s000 - crop - col.jpg,506870,64,68,single-stim,A15GRSTO3CWT8O:3RANCT1ZVGE2X81L1V2PIUDQ7AEUB2,"1. Golden-fronted Woodpecker
2. Red-bellied Woodpecker
3. Gila Woodpecker
4. Red-headed Woodpecker"
347,4,0-0,52,Expert,6216,/static/images/Expert/10_Warbling Vireo/B_Vieros - Warbling Vireo - 004 - s001 - crop - col.jpg,513535,65,69,single-stim,A15GRSTO3CWT8O:3RANCT1ZVGE2X81L1V2PIUDQ7AEUB2,"1. Bell's Vireo
2. Philadelphia Vireo
3. Hutton's Vireo
4. Warbling Vireo"
348,3,0-0,50,Expert,3044,/static/images/Expert/01_Townsend's Warbler/B_Wood-warblers - Townsends's Warbler - 002 - s000 - crop - col.jpg,516941,66,70,single-stim,A15GRSTO3CWT8O:3RANCT1ZVGE2X81L1V2PIUDQ7AEUB2,"1. Magnolia Warbler
2. Blackburnian Warbler
3. Townsend's Warbler
4. Black-throated Green Warbler"
349,2,0-0,51,Expert,4359,/static/images/Expert/17_Yellow-bellied Sapsucker/B_Woodpeckers - Yellow-bellied Sapsucker - 003 - s000 - crop - col.jpg,521786,67,71,single-stim,A15GRSTO3CWT8O:3RANCT1ZVGE2X81L1V2PIUDQ7AEUB2,"1. Golden-fronted Woodpecker
2. Yellow-bellied Sapsucker
3. Ladder-backed Woodpecker
4. Red-Naped Sapsucker"
350,3,0-0,49,Expert,2825,/static/images/Expert/110_Pygmy Nuthatch/Pygmy Nuthatch2.jpg,524840,68,72,single-stim,A15GRSTO3CWT8O:3RANCT1ZVGE2X81L1V2PIUDQ7AEUB2,"1. Bushtit
2. Brown-headed Nuthatch
3. Pygmy Nuthatch
4. White-breasted Nuthatch"
351,1,0-0,50,Expert,2897,/static/images/Expert/116_Hermit Thrush/Hermit Thrush2.jpg,527929,69,73,single-stim,A15GRSTO3CWT8O:3RANCT1ZVGE2X81L1V2PIUDQ7AEUB2,"1. Hermit Thrush
2. Wood Thrush
3. Veery
4. Swainson's Thrush"
352,1,0-0,52,Advanced,4188,/static/images/Advanced/02_Prothonotary Warbler/B_Wood-warblers - Prothonotary Warbler - 002 - s000 - crop - col.jpg,532541,70,74,single-stim,A15GRSTO3CWT8O:3RANCT1ZVGE2X81L1V2PIUDQ7AEUB2,"1. Prothonotary Warbler
2. Wilson's Warbler
3. Prairie Warbler
4. Yellow Warbler"
353,1,0-0,51,Expert,4569,/static/images/Expert/14_Wilson's Warbler/B_Wood-warblers - Wilson's Warbler - 002 - s001 - crop - col.jpg,537449,71,75,single-stim,A15GRSTO3CWT8O:3RANCT1ZVGE2X81L1V2PIUDQ7AEUB2,"1. Wilson's Warbler
2. Yellow Warbler
3. Common Yellowthroat
4. Hooded Warbler"
354,4,0-0,49,Expert,4799,/static/images/Expert/115_Vesper Sparrow/Vesper Sparrow2.jpg,542421,72,76,single-stim,A15GRSTO3CWT8O:3RANCT1ZVGE2X81L1V2PIUDQ7AEUB2,"1. Swamp Sparrow
2. Lincoln's Sparrow
3. Song Sparrow
4. Vesper Sparrow"
355,1,0-0,51,Advanced,4187,/static/images/Advanced/11_Say's Phoebe/B_Tyrant Flycatchers - Say's Phoebe - 004 - s000 - crop - col.jpg,547014,73,77,single-stim,A15GRSTO3CWT8O:3RANCT1ZVGE2X81L1V2PIUDQ7AEUB2,"1. Say's Phoebe
2. Black Phoebe
3. Olive-sided Flycatcher
4. Eastern Phoebe"
356,4,0-0,51,Intermediate,5283,/static/images/Intermediate/06_Phainopepla/B_Silky-Flycatchers - Phainopepla - 003 - s000 - m - a -crop - col.jpg,552473,74,78,single-stim,A15GRSTO3CWT8O:3RANCT1ZVGE2X81L1V2PIUDQ7AEUB2,"1. Northern Cardinal
2. Cedar Waxwing
3. Pyrrhuloxia
4. Phainopepla"
357,1,0-0,52,Expert,4694,/static/images/Expert/06_White-crowned Sparrow/B_Sparrows - White-crowned Sparrow - 003 - s000 - crop - col.jpg,557678,75,79,single-stim,A15GRSTO3CWT8O:3RANCT1ZVGE2X81L1V2PIUDQ7AEUB2,"1. White-crowned Sparrow
2. Swamp Sparrow
3. White-throated Sparrow
4. Song Sparrow"
358,4,0-0,50,Advanced,3914,"/static/images/Advanced/13_Common Raven/B_Jays, Magpies, and Crows - Common Raven - 006 - s000 - m - a -crop - col.jpg",561788,76,80,single-stim,A15GRSTO3CWT8O:3RANCT1ZVGE2X81L1V2PIUDQ7AEUB2,"1. Fish Crow
2. American Crow
3. Gray Jay
4. Common Raven"
359,4,0-0,49,Expert,6621,/static/images/Expert/09_Purple Martin/B_Swallows - Purple Martin - 006 - s001 - crop - col.jpg,568545,77,81,single-stim,A15GRSTO3CWT8O:3RANCT1ZVGE2X81L1V2PIUDQ7AEUB2,"1. Barn Swallow
2. Common Grackle
3. Tree Swallow
4. Purple Martin"
360,3,0-0,50,Intermediate,5556,/static/images/Intermediate/13_Pyrrhuloxia/B_Cardinals and Grosbeaks - Pyrrhuloxia - 012 - s010 - m - crop - col.jpg,574528,78,82,single-stim,A15GRSTO3CWT8O:3RANCT1ZVGE2X81L1V2PIUDQ7AEUB2,"1. Scarlet Tanager
2. Northern Cardinal
3. Pyrrhuloxia
4. Bobolink"
